SensorId, TimeStamp (s), FrameNumber, AccX (g), AccY (g), AccZ (g), GyroX (deg/s), GyroY (deg/s), GyroZ (deg/s), MagX (uT), MagY (uT), MagZ (uT), EulerX (deg), EulerY (deg), EulerZ (deg), QuatW, QuatX, QuatY, QuatZ, LinAccX (g), LinAccY (g), LinAccZ (g), Pressure (kPa), Altitude (m), Temperature (degC), HeaveMotion (m)
3, 0.0000, 0, 0.0103, -0.0350, -0.9996, -0.0637, 0.0248, -0.0368, 0.0000, 0.0000, 0.0000, 0.0000, 0.0000, 0.0000, 0.9676, -0.0172, 0.0000, 0.2518, -0.0017, 0.0016, 0.0002, 0.0000, 0.0000, 0.0000, 0.0000
2, -0.0000, 0, -0.1966, -0.0535, -0.9963, -0.1755, 0.0853, -0.0755, 0.0000, 0.0000, 0.0000, 0.0000, 0.0000, 0.0000, 0.9948, -0.0268, 0.0969, -0.0188, 0.0028, 0.0038, 0.0165, 0.0000, 0.0000, 0.0000, 0.0000
1, -0.0000, 0, 0.0612, 0.0120, -0.9959, 0.0384, 0.0128, -0.0051, 0.0000, 0.0000, 0.0000, 0.0000, 0.0000, 0.0000, -0.2842, -0.3210, 0.7144, -0.5530, -0.0093, 0.9604, 1.2233, 0.0000, 0.0000, 0.0000, 0.0000
3, 0.0100, 1, 0.0083, -0.0302, -0.9987, -0.2392, 0.0104, -0.0906, 0.0000, 0.0000, 0.0000, 0.0000, 0.0000, 0.0000, 0.9676, -0.0173, 0.0000, 0.2518, 0.0003, -0.0032, -0.0007, 0.0000, 0.0000, 0.0000, 0.0000
2, 0.0100, 1, -0.1973, -0.0490, -0.9945, 0.0345, -0.1947, -0.0405, 0.0000, 0.0000, 0.0000, 0.0000, 0.0000, 0.0000, 0.9948, -0.0268, 0.0969, -0.0188, 0.0034, -0.0007, 0.0147, 0.0000, 0.0000, 0.0000, 0.0000
3, 0.0200, 2, 0.0090, -0.0391, -1.0016, 0.4659, 0.0370, -0.0846, 0.0000, 0.0000, 0.0000, 0.0000, 0.0000, 0.0000, 0.9676, -0.0174, 0.0000, 0.2518, -0.0004, 0.0055, 0.0022, 0.0000, 0.0000, 0.0000, 0.0000
1, 0.0100, 1, 0.0634, 0.0143, -0.9946, -0.1037, -0.1120, 0.1881, 0.0000, 0.0000, 0.0000, 0.0000, 0.0000, 0.0000, -0.2842, -0.3210, 0.7144, -0.5530, -0.0124, 0.9583, 1.2213, 0.0000, 0.0000, 0.0000, 0.0000
2, 0.0200, 2, -0.1981, -0.0515, -0.9951, -0.0180, 0.1028, -0.0230, 0.0000, 0.0000, 0.0000, 0.0000, 0.0000, 0.0000, 0.9948, -0.0268, 0.0969, -0.0188, 0.0042, 0.0018, 0.0153, 0.0000, 0.0000, 0.0000, 0.0000
1, 0.0200, 2, 0.0659, 0.0137, -0.9985, -0.0677, 0.0801, -0.0051, 0.0000, 0.0000, 0.0000, 0.0000, 0.0000, 0.0000, -0.2842, -0.3210, 0.7144, -0.5530, -0.0150, 0.9590, 1.2253, 0.0000, 0.0000, 0.0000, 0.0000
1, 0.0300, 3, 0.0636, 0.0104, -0.9966, -0.0121, -0.1578, -0.0565, 0.0000, 0.0000, 0.0000, 0.0000, 0.0000, 0.0000, -0.2842, -0.3210, 0.7144, -0.5530, -0.0127, 0.9622, 1.2234, 0.0000, 0.0000, 0.0000, 0.0000
3, 0.0300, 3, 0.0098, -0.0324, -0.9994, -0.5034, 0.1002, -0.0761, 0.0000, 0.0000, 0.0000, 0.0000, 0.0000, 0.0000, 0.9676, -0.0173, 0.0000, 0.2518, -0.0011, -0.0012, 0.0000, 0.0000, 0.0000, 0.0000, 0.0000
2, 0.0300, 3, -0.1956, -0.0507, -0.9946, -0.0180, -0.0547, -0.0930, 0.0000, 0.0000, 0.0000, 0.0000, 0.0000, 0.0000, 0.9948, -0.0268, 0.0969, -0.0188, 0.0017, 0.0010, 0.0148, 0.0000, 0.0000, 0.0000, 0.0000
3, 0.0400, 4, 0.0092, -0.0333, -1.0002, 0.4310, 0.0186, 0.0222, 0.0000, 0.0000, 0.0000, 0.0000, 0.0000, 0.0000, 0.9676, -0.0173, 0.0000, 0.2518, -0.0005, -0.0003, 0.0008, 0.0000, 0.0000, 0.0000, 0.0000
2, 0.0400, 4, -0.1984, -0.0492, -0.9951, 0.0520, -0.0722, -0.0580, 0.0000, 0.0000, 0.0000, 0.0000, 0.0000, 0.0000, 0.9948, -0.0268, 0.0969, -0.0188, 0.0045, -0.0005, 0.0153, 0.0000, 0.0000, 0.0000, 0.0000
1, 0.0400, 4, 0.0642, 0.0141, -0.9941, 0.0907, 0.1511, -0.0584, 0.0000, 0.0000, 0.0000, 0.0000, 0.0000, 0.0000, -0.2842, -0.3210, 0.7144, -0.5530, -0.0133, 0.9585, 1.2209, 0.0000, 0.0000, 0.0000, 0.0000
1, 0.0500, 5, 0.0644, 0.0114, -0.9957, -0.0522, 0.2158, 0.0640, 0.0000, 0.0000, 0.0000, 0.0000, 0.0000, 0.0000, -0.2842, -0.3210, 0.7144, -0.5530, -0.0134, 0.9612, 1.2225, 0.0000, 0.0000, 0.0000, 0.0000
3, 0.0500, 5, 0.0101, -0.0354, -0.9996, -0.0254, 0.0258, -0.0866, 0.0000, 0.0000, 0.0000, 0.0000, 0.0000, 0.0000, 0.9676, -0.0173, 0.0000, 0.2519, -0.0014, 0.0018, 0.0002, 0.0000, 0.0000, 0.0000, 0.0000
2, 0.0500, 5, -0.1965, -0.0513, -0.9959, 0.1220, 0.1203, -0.1630, 0.0000, 0.0000, 0.0000, 0.0000, 0.0000, 0.0000, 0.9948, -0.0268, 0.0969, -0.0187, 0.0027, 0.0016, 0.0161, 0.0000, 0.0000, 0.0000, 0.0000
3, 0.0600, 6, 0.0069, -0.0300, -1.0036, 0.0446, 0.0592, -0.0513, 0.0000, 0.0000, 0.0000, 0.0000, 0.0000, 0.0000, 0.9676, -0.0173, 0.0000, 0.2519, 0.0018, -0.0036, 0.0042, 0.0000, 0.0000, 0.0000, 0.0000
1, 0.0600, 6, 0.0644, 0.0138, -0.9971, 0.0227, -0.2272, 0.0136, 0.0000, 0.0000, 0.0000, 0.0000, 0.0000, 0.0000, -0.2842, -0.3210, 0.7144, -0.5530, -0.0134, 0.9588, 1.2240, 0.0000, 0.0000, 0.0000, 0.0000
2, 0.0600, 6, -0.1960, -0.0504, -0.9958, -0.1101, 0.0890, 0.0597, 0.0000, 0.0000, 0.0000, 0.0000, 0.0000, 0.0000, 0.9948, -0.0268, 0.0969, -0.0187, 0.0022, 0.0007, 0.0160, 0.0000, 0.0000, 0.0000, 0.0000
1, 0.0700, 7, 0.0630, 0.0142, -0.9939, 0.0720, 0.2706, -0.0589, 0.0000, 0.0000, 0.0000, 0.0000, 0.0000, 0.0000, -0.2842, -0.3210, 0.7144, -0.5530, -0.0120, 0.9584, 1.2207, 0.0000, 0.0000, 0.0000, 0.0000
3, 0.0700, 7, 0.0095, -0.0344, -1.0018, 0.4850, 0.0192, -0.0472, 0.0000, 0.0000, 0.0000, 0.0000, 0.0000, 0.0000, 0.9676, -0.0173, 0.0000, 0.2519, -0.0008, 0.0008, 0.0024, 0.0000, 0.0000, 0.0000, 0.0000
2, 0.0700, 7, -0.1964, -0.0517, -0.9947, -0.0066, -0.1373, 0.0465, 0.0000, 0.0000, 0.0000, 0.0000, 0.0000, 0.0000, 0.9948, -0.0268, 0.0969, -0.0188, 0.0025, 0.0020, 0.0149, 0.0000, 0.0000, 0.0000, 0.0000
3, 0.0800, 8, 0.0081, -0.0339, -1.0018, -0.0624, 0.0243, 0.0178, 0.0000, 0.0000, 0.0000, 0.0000, 0.0000, 0.0000, 0.9676, -0.0173, 0.0000, 0.2519, 0.0006, 0.0003, 0.0024, 0.0000, 0.0000, 0.0000, 0.0000
2, 0.0800, 8, -0.1949, -0.0497, -0.9942, -0.0766, 0.1077, 0.0290, 0.0000, 0.0000, 0.0000, 0.0000, 0.0000, 0.0000, 0.9948, -0.0267, 0.0968, -0.0188, 0.0011, 0.0000, 0.0144, 0.0000, 0.0000, 0.0000, 0.0000
1, 0.0800, 8, 0.0659, 0.0139, -0.9958, -0.0317, -0.1403, -0.0570, 0.0000, 0.0000, 0.0000, 0.0000, 0.0000, 0.0000, -0.2842, -0.3210, 0.7144, -0.5530, -0.0149, 0.9587, 1.2226, 0.0000, 0.0000, 0.0000, 0.0000
3, 0.0900, 9, 0.0110, -0.0336, -1.0009, 0.1114, -0.1189, 0.1251, 0.0000, 0.0000, 0.0000, 0.0000, 0.0000, 0.0000, 0.9676, -0.0173, 0.0000, 0.2518, -0.0023, 0.0001, 0.0015, 0.0000, 0.0000, 0.0000, 0.0000
2, 0.0900, 9, -0.1981, -0.0500, -0.9963, 0.1334, -0.0673, 0.0640, 0.0000, 0.0000, 0.0000, 0.0000, 0.0000, 0.0000, 0.9948, -0.0267, 0.0968, -0.0188, 0.0044, 0.0004, 0.0165, 0.0000, 0.0000, 0.0000, 0.0000
3, 0.1000, 10, 0.0083, -0.0345, -1.0009, 0.1828, 0.0024, 0.1075, 0.0000, 0.0000, 0.0000, 0.0000, 0.0000, 0.0000, 0.9676, -0.0173, 0.0000, 0.2518, 0.0004, 0.0010, 0.0015, 0.0000, 0.0000, 0.0000, 0.0000
1, 0.0900, 9, 0.0621, 0.0138, -0.9945, -0.0024, -0.1565, -0.0063, 0.0000, 0.0000, 0.0000, 0.0000, 0.0000, 0.0000, -0.2842, -0.3210, 0.7144, -0.5530, -0.0112, 0.9588, 1.2213, 0.0000, 0.0000, 0.0000, 0.0000
2, 0.1000, 10, -0.1964, -0.0493, -0.9941, -0.0241, 0.1427, -0.0935, 0.0000, 0.0000, 0.0000, 0.0000, 0.0000, 0.0000, 0.9948, -0.0267, 0.0968, -0.0188, 0.0027, -0.0003, 0.0143, 0.0000, 0.0000, 0.0000, 0.0000
3, 0.1100, 11, 0.0088, -0.0329, -0.9996, 0.0635, 0.0084, -0.1381, 0.0000, 0.0000, 0.0000, 0.0000, 0.0000, 0.0000, 0.9676, -0.0171, 0.0003, 0.2519, -0.0003, -0.0006, 0.0002, 0.0000, 0.0000, 0.0000, 0.0000
1, 0.1000, 10, 0.0671, 0.0115, -0.9971, -0.0071, 0.2178, 0.0966, 0.0000, 0.0000, 0.0000, 0.0000, 0.0000, 0.0000, -0.2844, -0.3209, 0.7144, -0.5530, -0.0160, 0.9611, 1.2238, 0.0000, 0.0000, 0.0000, 0.0000
2, 0.1100, 11, -0.1957, -0.0499, -0.9944, 0.0459, -0.0498, 0.0465, 0.0000, 0.0000, 0.0000, 0.0000, 0.0000, 0.0000, 0.9948, -0.0267, 0.0968, -0.0188, 0.0020, 0.0004, 0.0146, 0.0000, 0.0000, 0.0000, 0.0000
3, 0.1200, 12, 0.0076, -0.0351, -1.0005, 0.0976, 0.0241, -0.0681, 0.0000, 0.0000, 0.0000, 0.0000, 0.0000, 0.0000, 0.9676, -0.0171, 0.0003, 0.2519, 0.0004, 0.0018, 0.0011, 0.0000, 0.0000, 0.0000, 0.0000
1, 0.1100, 11, 0.0632, 0.0136, -0.9949, -0.0390, -0.2802, 0.1866, 0.0000, 0.0000, 0.0000, 0.0000, 0.0000, 0.0000, -0.2844, -0.3209, 0.7144, -0.5530, -0.0119, 0.9590, 1.2215, 0.0000, 0.0000, 0.0000, 0.0000
2, 0.1200, 12, -0.1971, -0.0486, -0.9948, -0.0066, 0.0727, 0.0465, 0.0000, 0.0000, 0.0000, 0.0000, 0.0000, 0.0000, 0.9948, -0.0267, 0.0968, -0.0188, 0.0034, -0.0009, 0.0150, 0.0000, 0.0000, 0.0000, 0.0000
3, 0.1300, 13, 0.0093, -0.0336, -1.0013, -0.0986, -0.0455, 0.0529, 0.0000, 0.0000, 0.0000, 0.0000, 0.0000, 0.0000, 0.9676, -0.0171, 0.0003, 0.2519, -0.0013, 0.0003, 0.0019, 0.0000, 0.0000, 0.0000, 0.0000
1, 0.1200, 12, 0.0618, 0.0132, -0.9952, -0.1466, 0.1660, 0.0450, 0.0000, 0.0000, 0.0000, 0.0000, 0.0000, 0.0000, -0.2844, -0.3209, 0.7144, -0.5530, -0.0105, 0.9594, 1.2218, 0.0000, 0.0000, 0.0000, 0.0000
3, 0.1400, 14, 0.0091, -0.0325, -1.0007, -0.0934, 0.0262, 0.0025, 0.0000, 0.0000, 0.0000, 0.0000, 0.0000, 0.0000, 0.9676, -0.0171, 0.0003, 0.2519, -0.0011, -0.0007, 0.0012, 0.0000, 0.0000, 0.0000, 0.0000
2, 0.1300, 13, -0.1964, -0.0505, -0.9946, 0.0809, 0.0727, -0.0410, 0.0000, 0.0000, 0.0000, 0.0000, 0.0000, 0.0000, 0.9948, -0.0269, 0.0968, -0.0188, 0.0027, 0.0009, 0.0148, 0.0000, 0.0000, 0.0000, 0.0000
1, 0.1300, 13, 0.0648, 0.0133, -0.9964, 0.0298, 0.0474, 0.0799, 0.0000, 0.0000, 0.0000, 0.0000, 0.0000, 0.0000, -0.2844, -0.3209, 0.7144, -0.5530, -0.0134, 0.9594, 1.2231, 0.0000, 0.0000, 0.0000, 0.0000
2, 0.1400, 14, -0.1967, -0.0488, -0.9953, 0.0284, 0.0552, -0.0410, 0.0000, 0.0000, 0.0000, 0.0000, 0.0000, 0.0000, 0.9948, -0.0269, 0.0968, -0.0187, 0.0030, -0.0011, 0.0155, 0.0000, 0.0000, 0.0000, 0.0000
3, 0.1500, 15, 0.0089, -0.0347, -1.0009, -0.1168, 0.0081, 0.0732, 0.0000, 0.0000, 0.0000, 0.0000, 0.0000, 0.0000, 0.9676, -0.0171, 0.0003, 0.2518, -0.0010, 0.0015, 0.0015, 0.0000, 0.0000, 0.0000, 0.0000
1, 0.1400, 14, 0.0618, 0.0121, -0.9973, -0.0560, -0.0370, -0.0242, 0.0000, 0.0000, 0.0000, 0.0000, 0.0000, 0.0000, -0.2844, -0.3209, 0.7144, -0.5530, -0.0105, 0.9605, 1.2240, 0.0000, 0.0000, 0.0000, 0.0000
3, 0.1600, 16, 0.0095, -0.0331, -1.0004, -0.1669, 0.1157, -0.0678, 0.0000, 0.0000, 0.0000, 0.0000, 0.0000, 0.0000, 0.9676, -0.0171, 0.0003, 0.2519, -0.0015, -0.0001, 0.0009, 0.0000, 0.0000, 0.0000, 0.0000
1, 0.1500, 15, 0.0646, 0.0128, -0.9961, -0.0416, 0.2529, 0.0267, 0.0000, 0.0000, 0.0000, 0.0000, 0.0000, 0.0000, -0.2844, -0.3209, 0.7144, -0.5530, -0.0132, 0.9598, 1.2228, 0.0000, 0.0000, 0.0000, 0.0000
1, 0.1600, 16, 0.0647, 0.0147, -0.9947, 0.0298, -0.0045, 0.1151, 0.0000, 0.0000, 0.0000, 0.0000, 0.0000, 0.0000, -0.2844, -0.3209, 0.7144, -0.5530, -0.0132, 0.9579, 1.2214, 0.0000, 0.0000, 0.0000, 0.0000
2, 0.1500, 15, -0.1977, -0.0478, -0.9948, -0.0766, -0.0498, -0.0585, 0.0000, 0.0000, 0.0000, 0.0000, 0.0000, 0.0000, 0.9948, -0.0269, 0.0968, -0.0187, 0.0040, -0.0021, 0.0149, 0.0000, 0.0000, 0.0000, 0.0000
2, 0.1600, 16, -0.1970, -0.0496, -0.9943, -0.0932, 0.1045, -0.0342, 0.0000, 0.0000, 0.0000, 0.0000, 0.0000, 0.0000, 0.9948, -0.0269, 0.0968, -0.0187, 0.0034, -0.0002, 0.0145, 0.0000, 0.0000, 0.0000, 0.0000
3, 0.1700, 17, 0.0079, -0.0358, -0.9995, -0.1141, -0.0234, -0.1013, 0.0000, 0.0000, 0.0000, 0.0000, 0.0000, 0.0000, 0.9676, -0.0171, 0.0003, 0.2519, 0.0001, 0.0025, 0.0001, 0.0000, 0.0000, 0.0000, 0.0000
1, 0.1700, 17, 0.0607, 0.0145, -0.9964, -0.0216, -0.0205, 0.0280, 0.0000, 0.0000, 0.0000, 0.0000, 0.0000, 0.0000, -0.2844, -0.3209, 0.7144, -0.5530, -0.0092, 0.9581, 1.2231, 0.0000, 0.0000, 0.0000, 0.0000
3, 0.1800, 18, 0.0080, -0.0343, -1.0003, -0.1839, 0.1166, -0.1028, 0.0000, 0.0000, 0.0000, 0.0000, 0.0000, 0.0000, 0.9676, -0.0171, 0.0003, 0.2519, 0.0001, 0.0010, 0.0009, 0.0000, 0.0000, 0.0000, 0.0000
2, 0.1700, 17, -0.1971, -0.0498, -0.9940, 0.1176, 0.2062, -0.0623, 0.0000, 0.0000, 0.0000, 0.0000, 0.0000, 0.0000, 0.9948, -0.0269, 0.0968, -0.0187, 0.0035, -0.0000, 0.0142, 0.0000, 0.0000, 0.0000, 0.0000
1, 0.1800, 18, 0.0642, 0.0131, -0.9962, -0.1274, 0.0300, 0.0107, 0.0000, 0.0000, 0.0000, 0.0000, 0.0000, 0.0000, -0.2844, -0.3209, 0.7144, -0.5530, -0.0127, 0.9595, 1.2229, 0.0000, 0.0000, 0.0000, 0.0000
2, 0.1800, 18, -0.1983, -0.0503, -0.9940, -0.0574, 0.0312, -0.0973, 0.0000, 0.0000, 0.0000, 0.0000, 0.0000, 0.0000, 0.9948, -0.0268, 0.0968, -0.0187, 0.0047, 0.0005, 0.0142, 0.0000, 0.0000, 0.0000, 0.0000
3, 0.1900, 19, 0.0078, -0.0329, -1.0003, 0.2539, -0.0993, 0.0073, 0.0000, 0.0000, 0.0000, 0.0000, 0.0000, 0.0000, 0.9676, -0.0171, 0.0003, 0.2519, 0.0002, -0.0003, 0.0008, 0.0000, 0.0000, 0.0000, 0.0000
1, 0.1900, 19, 0.0636, 0.0134, -0.9945, -0.1676, -0.1327, -0.0817, 0.0000, 0.0000, 0.0000, 0.0000, 0.0000, 0.0000, -0.2844, -0.3209, 0.7144, -0.5529, -0.0121, 0.9592, 1.2212, 0.0000, 0.0000, 0.0000, 0.0000
3, 0.2000, 20, 0.0077, -0.0318, -1.0004, -0.0454, -0.1473, -0.0300, 0.0000, 0.0000, 0.0000, 0.0000, 0.0000, 0.0000, 0.9676, -0.0171, 0.0003, 0.2519, 0.0004, -0.0015, 0.0010, 0.0000, 0.0000, 0.0000, 0.0000
1, 0.2000, 20, 0.0649, 0.0148, -0.9939, 0.0248, -0.0630, -0.0478, 0.0000, 0.0000, 0.0000, 0.0000, 0.0000, 0.0000, -0.2844, -0.3209, 0.7145, -0.5529, -0.0134, 0.9578, 1.2207, 0.0000, 0.0000, 0.0000, 0.0000
2, 0.1900, 19, -0.1972, -0.0501, -0.9948, -0.0224, 0.0137, -0.0448, 0.0000, 0.0000, 0.0000, 0.0000, 0.0000, 0.0000, 0.9948, -0.0268, 0.0968, -0.0187, 0.0036, 0.0004, 0.0149, 0.0000, 0.0000, 0.0000, 0.0000
3, 0.2100, 21, 0.0087, -0.0326, -1.0014, -0.0789, -0.0412, -0.1008, 0.0000, 0.0000, 0.0000, 0.0000, 0.0000, 0.0000, 0.9676, -0.0171, 0.0003, 0.2519, -0.0007, -0.0006, 0.0020, 0.0000, 0.0000, 0.0000, 0.0000
2, 0.2000, 20, -0.1979, -0.0504, -0.9960, -0.0049, -0.0738, 0.0252, 0.0000, 0.0000, 0.0000, 0.0000, 0.0000, 0.0000, 0.9948, -0.0268, 0.0968, -0.0187, 0.0043, 0.0007, 0.0162, 0.0000, 0.0000, 0.0000, 0.0000
2, 0.2100, 21, -0.1956, -0.0482, -0.9951, -0.0749, -0.0213, 0.0602, 0.0000, 0.0000, 0.0000, 0.0000, 0.0000, 0.0000, 0.9948, -0.0268, 0.0968, -0.0187, 0.0019, -0.0015, 0.0153, 0.0000, 0.0000, 0.0000, 0.0000
1, 0.2100, 21, 0.0625, 0.0124, -0.9960, -0.1710, 0.0702, 0.0395, 0.0000, 0.0000, 0.0000, 0.0000, 0.0000, 0.0000, -0.2844, -0.3209, 0.7145, -0.5529, -0.0109, 0.9602, 1.2228, 0.0000, 0.0000, 0.0000, 0.0000
3, 0.2200, 22, 0.0069, -0.0357, -1.0023, -0.2559, 0.0465, -0.0331, 0.0000, 0.0000, 0.0000, 0.0000, 0.0000, 0.0000, 0.9676, -0.0171, 0.0003, 0.2519, 0.0011, 0.0025, 0.0029, 0.0000, 0.0000, 0.0000, 0.0000
1, 0.2200, 22, 0.0654, 0.0133, -0.9977, -0.0652, 0.0197, 0.0569, 0.0000, 0.0000, 0.0000, 0.0000, 0.0000, 0.0000, -0.2844, -0.3209, 0.7145, -0.5529, -0.0137, 0.9593, 1.2245, 0.0000, 0.0000, 0.0000, 0.0000
3, 0.2300, 23, 0.0111, -0.0331, -1.0014, 0.1142, 0.0422, -0.0299, 0.0000, 0.0000, 0.0000, 0.0000, 0.0000, 0.0000, 0.9676, -0.0171, 0.0003, 0.2519, -0.0031, -0.0001, 0.0019, 0.0000, 0.0000, 0.0000, 0.0000
2, 0.2200, 22, -0.1944, -0.0502, -0.9944, 0.1001, -0.0388, 0.0077, 0.0000, 0.0000, 0.0000, 0.0000, 0.0000, 0.0000, 0.9948, -0.0268, 0.0968, -0.0187, 0.0008, 0.0006, 0.0146, 0.0000, 0.0000, 0.0000, 0.0000
1, 0.2300, 23, 0.0661, 0.0122, -0.9949, -0.0998, 0.0548, -0.0130, 0.0000, 0.0000, 0.0000, 0.0000, 0.0000, 0.0000, -0.2844, -0.3209, 0.7145, -0.5529, -0.0144, 0.9603, 1.2218, 0.0000, 0.0000, 0.0000, 0.0000
3, 0.2400, 24, 0.0075, -0.0331, -0.9988, 0.0582, 0.0203, 0.0822, 0.0000, 0.0000, 0.0000, 0.0000, 0.0000, 0.0000, 0.9676, -0.0171, 0.0003, 0.2519, 0.0005, -0.0002, -0.0006, 0.0000, 0.0000, 0.0000, 0.0000
1, 0.2400, 24, 0.0613, 0.0128, -0.9950, -0.1326, -0.1672, -0.0467, 0.0000, 0.0000, 0.0000, 0.0000, 0.0000, 0.0000, -0.2844, -0.3209, 0.7145, -0.5529, -0.0097, 0.9597, 1.2219, 0.0000, 0.0000, 0.0000, 0.0000
3, 0.2500, 25, 0.0068, -0.0329, -1.0012, 0.1296, 0.0879, -0.0147, 0.0000, 0.0000, 0.0000, 0.0000, 0.0000, 0.0000, 0.9676, -0.0171, 0.0003, 0.2519, 0.0012, -0.0003, 0.0018, 0.0000, 0.0000, 0.0000, 0.0000
2, 0.2300, 23, -0.1972, -0.0507, -0.9939, -0.0399, 0.1187, -0.1148, 0.0000, 0.0000, 0.0000, 0.0000, 0.0000, 0.0000, 0.9948, -0.0268, 0.0968, -0.0187, 0.0036, 0.0010, 0.0141, 0.0000, 0.0000, 0.0000, 0.0000
3, 0.2600, 26, 0.0089, -0.0332, -1.0035, 0.0946, 0.0368, -0.0496, 0.0000, 0.0000, 0.0000, 0.0000, 0.0000, 0.0000, 0.9676, -0.0171, 0.0003, 0.2519, -0.0009, -0.0000, 0.0041, 0.0000, 0.0000, 0.0000, 0.0000
1, 0.2500, 25, 0.0644, 0.0119, -0.9949, 0.0768, 0.0576, -0.0661, 0.0000, 0.0000, 0.0000, 0.0000, 0.0000, 0.0000, -0.2844, -0.3209, 0.7145, -0.5529, -0.0128, 0.9607, 1.2218, 0.0000, 0.0000, 0.0000, 0.0000
2, 0.2400, 24, -0.1979, -0.0513, -0.9954, -0.0399, -0.0213, 0.0777, 0.0000, 0.0000, 0.0000, 0.0000, 0.0000, 0.0000, 0.9948, -0.0268, 0.0968, -0.0187, 0.0044, 0.0016, 0.0155, 0.0000, 0.0000, 0.0000, 0.0000
3, 0.2700, 27, 0.0064, -0.0340, -1.0008, 0.1657, 0.0885, -0.0668, 0.0000, 0.0000, 0.0000, 0.0000, 0.0000, 0.0000, 0.9676, -0.0171, 0.0003, 0.2519, 0.0017, 0.0008, 0.0014, 0.0000, 0.0000, 0.0000, 0.0000
2, 0.2500, 25, -0.1965, -0.0494, -0.9943, 0.0826, 0.1012, 0.0777, 0.0000, 0.0000, 0.0000, 0.0000, 0.0000, 0.0000, 0.9948, -0.0268, 0.0968, -0.0187, 0.0030, -0.0003, 0.0144, 0.0000, 0.0000, 0.0000, 0.0000
1, 0.2600, 26, 0.0649, 0.0129, -0.9954, 0.0771, -0.0286, -0.0307, 0.0000, 0.0000, 0.0000, 0.0000, 0.0000, 0.0000, -0.2844, -0.3209, 0.7145, -0.5529, -0.0132, 0.9597, 1.2222, 0.0000, 0.0000, 0.0000, 0.0000
3, 0.2800, 28, 0.0097, -0.0322, -0.9995, -0.0819, -0.0307, -0.0507, 0.0000, 0.0000, 0.0000, 0.0000, 0.0000, 0.0000, 0.9676, -0.0171, 0.0003, 0.2519, -0.0017, -0.0011, 0.0001, 0.0000, 0.0000, 0.0000, 0.0000
2, 0.2600, 26, -0.1982, -0.0495, -0.9975, -0.0403, 0.0272, -0.0593, 0.0000, 0.0000, 0.0000, 0.0000, 0.0000, 0.0000, 0.9948, -0.0268, 0.0968, -0.0187, 0.0046, -0.0002, 0.0177, 0.0000, 0.0000, 0.0000, 0.0000
1, 0.2700, 27, 0.0630, 0.0139, -0.9947, -0.0120, -0.0311, 0.0569, 0.0000, 0.0000, 0.0000, 0.0000, 0.0000, 0.0000, -0.2844, -0.3209, 0.7145, -0.5529, -0.0114, 0.9586, 1.2215, 0.0000, 0.0000, 0.0000, 0.0000
3, 0.2900, 29, 0.0075, -0.0350, -1.0021, 0.0403, 0.0877, 0.0543, 0.0000, 0.0000, 0.0000, 0.0000, 0.0000, 0.0000, 0.9676, -0.0171, 0.0003, 0.2519, 0.0006, 0.0018, 0.0027, 0.0000, 0.0000, 0.0000, 0.0000
1, 0.2800, 28, 0.0626, 0.0128, -0.9964, -0.1867, 0.0207, -0.0650, 0.0000, 0.0000, 0.0000, 0.0000, 0.0000, 0.0000, -0.2844, -0.3209, 0.7145, -0.5529, -0.0110, 0.9598, 1.2232, 0.0000, 0.0000, 0.0000, 0.0000
2, 0.2700, 27, -0.1974, -0.0504, -0.9949, -0.0766, -0.0022, 0.0547, 0.0000, 0.0000, 0.0000, 0.0000, 0.0000, 0.0000, 0.9948, -0.0268, 0.0968, -0.0187, 0.0039, 0.0007, 0.0150, 0.0000, 0.0000, 0.0000, 0.0000
2, 0.2800, 28, -0.1971, -0.0494, -0.9951, 0.1509, -0.0197, 0.0547, 0.0000, 0.0000, 0.0000, 0.0000, 0.0000, 0.0000, 0.9948, -0.0268, 0.0967, -0.0187, 0.0036, -0.0003, 0.0152, 0.0000, 0.0000, 0.0000, 0.0000
3, 0.3000, 30, 0.0108, -0.0330, -0.9991, 0.0219, 0.0006, 0.0722, 0.0000, 0.0000, 0.0000, 0.0000, 0.0000, 0.0000, 0.9676, -0.0171, 0.0003, 0.2519, -0.0027, -0.0003, -0.0003, 0.0000, 0.0000, 0.0000, 0.0000
1, 0.2900, 29, 0.0634, 0.0142, -0.9950, 0.0978, -0.2118, -0.0452, 0.0000, 0.0000, 0.0000, 0.0000, 0.0000, 0.0000, -0.2844, -0.3209, 0.7145, -0.5529, -0.0118, 0.9584, 1.2218, 0.0000, 0.0000, 0.0000, 0.0000
2, 0.2900, 29, -0.1962, -0.0488, -0.9951, 0.0459, -0.0372, 0.0372, 0.0000, 0.0000, 0.0000, 0.0000, 0.0000, 0.0000, 0.9948, -0.0268, 0.0967, -0.0187, 0.0028, -0.0009, 0.0153, 0.0000, 0.0000, 0.0000, 0.0000
3, 0.3100, 31, 0.0094, -0.0343, -0.9992, -0.1680, 0.0244, -0.1567, 0.0000, 0.0000, 0.0000, 0.0000, 0.0000, 0.0000, 0.9676, -0.0171, 0.0002, 0.2519, -0.0013, 0.0010, -0.0002, 0.0000, 0.0000, 0.0000, 0.0000
2, 0.3000, 30, -0.1968, -0.0489, -0.9948, -0.0416, -0.0372, 0.0547, 0.0000, 0.0000, 0.0000, 0.0000, 0.0000, 0.0000, 0.9948, -0.0268, 0.0967, -0.0187, 0.0033, -0.0008, 0.0149, 0.0000, 0.0000, 0.0000, 0.0000
2, 0.3100, 31, -0.1976, -0.0488, -0.9940, -0.0241, -0.0897, 0.0722, 0.0000, 0.0000, 0.0000, 0.0000, 0.0000, 0.0000, 0.9948, -0.0268, 0.0967, -0.0188, 0.0041, -0.0009, 0.0142, 0.0000, 0.0000, 0.0000, 0.0000
2, 0.3200, 32, -0.1957, -0.0508, -0.9952, -0.0066, -0.0897, 0.0197, 0.0000, 0.0000, 0.0000, 0.0000, 0.0000, 0.0000, 0.9948, -0.0268, 0.0968, -0.0188, 0.0022, 0.0012, 0.0153, 0.0000, 0.0000, 0.0000, 0.0000
1, 0.3000, 30, 0.0620, 0.0127, -0.9965, 0.1190, -0.0062, 0.0242, 0.0000, 0.0000, 0.0000, 0.0000, 0.0000, 0.0000, -0.2844, -0.3209, 0.7145, -0.5528, -0.0104, 0.9599, 1.2233, 0.0000, 0.0000, 0.0000, 0.0000
1, 0.3100, 31, 0.0641, 0.0136, -0.9959, -0.0226, -0.0089, 0.0945, 0.0000, 0.0000, 0.0000, 0.0000, 0.0000, 0.0000, -0.2844, -0.3209, 0.7145, -0.5528, -0.0125, 0.9590, 1.2229, 0.0000, 0.0000, 0.0000, 0.0000
1, 0.3200, 32, 0.0637, 0.0135, -0.9956, 0.0138, 0.0105, -0.0105, 0.0000, 0.0000, 0.0000, 0.0000, 0.0000, 0.0000, -0.2844, -0.3209, 0.7145, -0.5528, -0.0122, 0.9590, 1.2225, 0.0000, 0.0000, 0.0000, 0.0000
3, 0.3200, 32, 0.0090, -0.0333, -0.9999, -0.0643, 0.0209, -0.0335, 0.0000, 0.0000, 0.0000, 0.0000, 0.0000, 0.0000, 0.9676, -0.0171, 0.0002, 0.2519, -0.0008, 0.0002, 0.0005, 0.0000, 0.0000, 0.0000, 0.0000
2, 0.3300, 33, -0.1970, -0.0504, -0.9955, -0.0066, -0.0897, 0.0372, 0.0000, 0.0000, 0.0000, 0.0000, 0.0000, 0.0000, 0.9948, -0.0268, 0.0969, -0.0188, 0.0035, 0.0007, 0.0157, 0.0000, 0.0000, 0.0000, 0.0000
1, 0.3300, 33, 0.0649, 0.0129, -0.9977, 0.1722, -0.0050, -0.0109, 0.0000, 0.0000, 0.0000, 0.0000, 0.0000, 0.0000, -0.2844, -0.3209, 0.7145, -0.5529, -0.0133, 0.9596, 1.2247, 0.0000, 0.0000, 0.0000, 0.0000
3, 0.3300, 33, 0.0090, -0.0344, -1.0009, 0.0730, -0.0194, 0.1776, 0.0000, 0.0000, 0.0000, 0.0000, 0.0000, 0.0000, 0.9676, -0.0171, 0.0002, 0.2519, -0.0008, 0.0012, 0.0015, 0.0000, 0.0000, 0.0000, 0.0000
1, 0.3400, 34, 0.0635, 0.0137, -0.9959, 0.1194, -0.0230, 0.0068, 0.0000, 0.0000, 0.0000, 0.0000, 0.0000, 0.0000, -0.2844, -0.3209, 0.7145, -0.5529, -0.0119, 0.9588, 1.2229, 0.0000, 0.0000, 0.0000, 0.0000
2, 0.3400, 34, -0.1963, -0.0490, -0.9945, -0.0066, -0.1072, 0.0197, 0.0000, 0.0000, 0.0000, 0.0000, 0.0000, 0.0000, 0.9948, -0.0268, 0.0969, -0.0188, 0.0026, -0.0008, 0.0147, 0.0000, 0.0000, 0.0000, 0.0000
3, 0.3400, 34, 0.0095, -0.0340, -1.0021, 0.1792, 0.0307, 0.0566, 0.0000, 0.0000, 0.0000, 0.0000, 0.0000, 0.0000, 0.9676, -0.0171, 0.0002, 0.2519, -0.0013, 0.0009, 0.0027, 0.0000, 0.0000, 0.0000, 0.0000
1, 0.3500, 35, 0.0646, 0.0134, -0.9948, -0.0567, 0.0788, -0.0455, 0.0000, 0.0000, 0.0000, 0.0000, 0.0000, 0.0000, -0.2844, -0.3209, 0.7146, -0.5528, -0.0130, 0.9591, 1.2217, 0.0000, 0.0000, 0.0000, 0.0000
2, 0.3500, 35, -0.1948, -0.0494, -0.9953, -0.0941, -0.0722, 0.0022, 0.0000, 0.0000, 0.0000, 0.0000, 0.0000, 0.0000, 0.9948, -0.0268, 0.0969, -0.0188, 0.0011, -0.0004, 0.0155, 0.0000, 0.0000, 0.0000, 0.0000
3, 0.3500, 35, 0.0089, -0.0352, -1.0010, 0.0155, -0.0283, 0.0227, 0.0000, 0.0000, 0.0000, 0.0000, 0.0000, 0.0000, 0.9676, -0.0171, 0.0002, 0.2519, -0.0008, 0.0019, 0.0016, 0.0000, 0.0000, 0.0000, 0.0000
2, 0.3600, 36, -0.1962, -0.0484, -0.9951, -0.1291, 0.1203, 0.0722, 0.0000, 0.0000, 0.0000, 0.0000, 0.0000, 0.0000, 0.9948, -0.0268, 0.0969, -0.0188, 0.0025, -0.0014, 0.0153, 0.0000, 0.0000, 0.0000, 0.0000
3, 0.3600, 36, 0.0103, -0.0322, -1.0014, -0.1433, 0.0598, 0.0556, 0.0000, 0.0000, 0.0000, 0.0000, 0.0000, 0.0000, 0.9676, -0.0171, 0.0001, 0.2519, -0.0021, -0.0010, 0.0020, 0.0000, 0.0000, 0.0000, 0.0000
2, 0.3700, 37, -0.1967, -0.0499, -0.9948, -0.0202, -0.0366, 0.0509, 0.0000, 0.0000, 0.0000, 0.0000, 0.0000, 0.0000, 0.9948, -0.0268, 0.0969, -0.0188, 0.0030, 0.0002, 0.0150, 0.0000, 0.0000, 0.0000, 0.0000
1, 0.3600, 36, 0.0649, 0.0123, -0.9952, -0.0038, 0.0103, -0.0104, 0.0000, 0.0000, 0.0000, 0.0000, 0.0000, 0.0000, -0.2844, -0.3209, 0.7146, -0.5528, -0.0132, 0.9602, 1.2223, 0.0000, 0.0000, 0.0000, 0.0000
3, 0.3700, 37, 0.0096, -0.0346, -1.0031, -0.1077, -0.0440, 0.0043, 0.0000, 0.0000, 0.0000, 0.0000, 0.0000, 0.0000, 0.9676, -0.0171, 0.0001, 0.2519, -0.0011, 0.0015, 0.0037, 0.0000, 0.0000, 0.0000, 0.0000
2, 0.3800, 38, -0.1952, -0.0492, -0.9950, -0.0377, 0.0334, 0.1384, 0.0000, 0.0000, 0.0000, 0.0000, 0.0000, 0.0000, 0.9948, -0.0268, 0.0968, -0.0188, 0.0015, -0.0005, 0.0152, 0.0000, 0.0000, 0.0000, 0.0000
3, 0.3800, 38, 0.0091, -0.0337, -1.0007, -0.0909, -0.0970, 0.0397, 0.0000, 0.0000, 0.0000, 0.0000, 0.0000, 0.0000, 0.9676, -0.0171, 0.0001, 0.2519, -0.0006, 0.0006, 0.0013, 0.0000, 0.0000, 0.0000, 0.0000
1, 0.3700, 37, 0.0628, 0.0130, -0.9956, -0.2681, 0.0415, 0.0078, 0.0000, 0.0000, 0.0000, 0.0000, 0.0000, 0.0000, -0.2844, -0.3209, 0.7146, -0.5528, -0.0111, 0.9595, 1.2228, 0.0000, 0.0000, 0.0000, 0.0000
1, 0.3800, 38, 0.0635, 0.0117, -0.9956, -0.0904, -0.0406, -0.0797, 0.0000, 0.0000, 0.0000, 0.0000, 0.0000, 0.0000, -0.2844, -0.3209, 0.7146, -0.5528, -0.0118, 0.9608, 1.2228, 0.0000, 0.0000, 0.0000, 0.0000
3, 0.3900, 39, 0.0076, -0.0319, -1.0024, 0.0507, -0.0806, 0.0059, 0.0000, 0.0000, 0.0000, 0.0000, 0.0000, 0.0000, 0.9676, -0.0171, 0.0001, 0.2519, 0.0009, -0.0012, 0.0030, 0.0000, 0.0000, 0.0000, 0.0000
2, 0.3900, 39, -0.1966, -0.0507, -0.9940, 0.0323, -0.0191, 0.0859, 0.0000, 0.0000, 0.0000, 0.0000, 0.0000, 0.0000, 0.9948, -0.0268, 0.0968, -0.0188, 0.0029, 0.0010, 0.0142, 0.0000, 0.0000, 0.0000, 0.0000
3, 0.4000, 40, 0.0082, -0.0320, -1.0015, -0.1771, 0.0619, -0.0320, 0.0000, 0.0000, 0.0000, 0.0000, 0.0000, 0.0000, 0.9676, -0.0171, 0.0001, 0.2519, 0.0002, -0.0010, 0.0020, 0.0000, 0.0000, 0.0000, 0.0000
2, 0.4000, 40, -0.1979, -0.0498, -0.9963, -0.2477, -0.0191, -0.0366, 0.0000, 0.0000, 0.0000, 0.0000, 0.0000, 0.0000, 0.9948, -0.0268, 0.0968, -0.0188, 0.0043, 0.0002, 0.0165, 0.0000, 0.0000, 0.0000, 0.0000
1, 0.3900, 39, 0.0623, 0.0115, -0.9951, -0.0666, 0.0314, -0.1145, 0.0000, 0.0000, 0.0000, 0.0000, 0.0000, 0.0000, -0.2844, -0.3209, 0.7146, -0.5528, -0.0106, 0.9610, 1.2223, 0.0000, 0.0000, 0.0000, 0.0000
3, 0.4100, 41, 0.0079, -0.0332, -1.0020, -0.1424, 0.0090, -0.0139, 0.0000, 0.0000, 0.0000, 0.0000, 0.0000, 0.0000, 0.9676, -0.0171, 0.0001, 0.2519, 0.0006, 0.0001, 0.0025, 0.0000, 0.0000, 0.0000, 0.0000
2, 0.4100, 41, -0.1970, -0.0499, -0.9941, -0.0902, -0.1591, 0.1909, 0.0000, 0.0000, 0.0000, 0.0000, 0.0000, 0.0000, 0.9948, -0.0267, 0.0969, -0.0188, 0.0033, 0.0003, 0.0143, 0.0000, 0.0000, 0.0000, 0.0000
3, 0.4200, 42, 0.0098, -0.0337, -1.0024, 0.0847, -0.0478, 0.0933, 0.0000, 0.0000, 0.0000, 0.0000, 0.0000, 0.0000, 0.9676, -0.0171, 0.0001, 0.2519, -0.0015, 0.0006, 0.0029, 0.0000, 0.0000, 0.0000, 0.0000
2, 0.4200, 42, -0.1978, -0.0489, -0.9952, -0.1252, 0.0159, -0.1066, 0.0000, 0.0000, 0.0000, 0.0000, 0.0000, 0.0000, 0.9948, -0.0267, 0.0968, -0.0188, 0.0041, -0.0007, 0.0154, 0.0000, 0.0000, 0.0000, 0.0000
1, 0.4000, 40, 0.0645, 0.0130, -0.9939, 0.0261, 0.0501, -0.0096, 0.0000, 0.0000, 0.0000, 0.0000, 0.0000, 0.0000, -0.2845, -0.3208, 0.7146, -0.5527, -0.0128, 0.9595, 1.2211, 0.0000, 0.0000, 0.0000, 0.0000
3, 0.4300, 43, 0.0086, -0.0328, -1.0009, 0.1033, -0.0297, 0.0410, 0.0000, 0.0000, 0.0000, 0.0000, 0.0000, 0.0000, 0.9676, -0.0171, 0.0001, 0.2519, -0.0003, -0.0003, 0.0015, 0.0000, 0.0000, 0.0000, 0.0000
2, 0.4300, 43, -0.1962, -0.0502, -0.9949, -0.0027, 0.0684, -0.0016, 0.0000, 0.0000, 0.0000, 0.0000, 0.0000, 0.0000, 0.9948, -0.0267, 0.0969, -0.0188, 0.0025, 0.0006, 0.0151, 0.0000, 0.0000, 0.0000, 0.0000
3, 0.4400, 44, 0.0090, -0.0342, -1.0015, -0.0740, -0.0115, 0.1091, 0.0000, 0.0000, 0.0000, 0.0000, 0.0000, 0.0000, 0.9676, -0.0171, 0.0001, 0.2518, -0.0007, 0.0011, 0.0021, 0.0000, 0.0000, 0.0000, 0.0000
1, 0.4100, 41, 0.0650, 0.0146, -0.9956, -0.0787, 0.0155, -0.0440, 0.0000, 0.0000, 0.0000, 0.0000, 0.0000, 0.0000, -0.2845, -0.3208, 0.7146, -0.5527, -0.0131, 0.9578, 1.2228, 0.0000, 0.0000, 0.0000, 0.0000
2, 0.4400, 44, -0.1965, -0.0510, -0.9948, 0.0848, 0.0684, 0.0684, 0.0000, 0.0000, 0.0000, 0.0000, 0.0000, 0.0000, 0.9948, -0.0268, 0.0969, -0.0188, 0.0028, 0.0014, 0.0150, 0.0000, 0.0000, 0.0000, 0.0000
1, 0.4200, 42, 0.0640, 0.0139, -0.9951, -0.1495, 0.0141, -0.0088, 0.0000, 0.0000, 0.0000, 0.0000, 0.0000, 0.0000, -0.2845, -0.3208, 0.7146, -0.5527, -0.0120, 0.9586, 1.2223, 0.0000, 0.0000, 0.0000, 0.0000
1, 0.4300, 43, 0.0626, 0.0127, -0.9950, -0.0975, 0.0482, 0.0257, 0.0000, 0.0000, 0.0000, 0.0000, 0.0000, 0.0000, -0.2845, -0.3208, 0.7146, -0.5527, -0.0107, 0.9597, 1.2223, 0.0000, 0.0000, 0.0000, 0.0000
3, 0.4500, 45, 0.0081, -0.0326, -1.0031, -0.1090, -0.0029, -0.0402, 0.0000, 0.0000, 0.0000, 0.0000, 0.0000, 0.0000, 0.9676, -0.0171, 0.0001, 0.2519, 0.0003, -0.0005, 0.0036, 0.0000, 0.0000, 0.0000, 0.0000
3, 0.4600, 46, 0.0074, -0.0345, -1.0022, -0.0036, 0.0474, -0.0047, 0.0000, 0.0000, 0.0000, 0.0000, 0.0000, 0.0000, 0.9676, -0.0171, 0.0001, 0.2518, 0.0009, 0.0014, 0.0028, 0.0000, 0.0000, 0.0000, 0.0000
2, 0.4500, 45, -0.1950, -0.0486, -0.9955, -0.0377, 0.1559, -0.0716, 0.0000, 0.0000, 0.0000, 0.0000, 0.0000, 0.0000, 0.9948, -0.0268, 0.0968, -0.0188, 0.0013, -0.0010, 0.0157, 0.0000, 0.0000, 0.0000, 0.0000
1, 0.4400, 44, 0.0631, 0.0133, -0.9962, 0.0090, 0.0161, -0.0269, 0.0000, 0.0000, 0.0000, 0.0000, 0.0000, 0.0000, -0.2845, -0.3208, 0.7146, -0.5527, -0.0111, 0.9592, 1.2235, 0.0000, 0.0000, 0.0000, 0.0000
2, 0.4600, 46, -0.1955, -0.0496, -0.9946, 0.0498, -0.0366, -0.0366, 0.0000, 0.0000, 0.0000, 0.0000, 0.0000, 0.0000, 0.9948, -0.0268, 0.0968, -0.0188, 0.0018, -0.0000, 0.0148, 0.0000, 0.0000, 0.0000, 0.0000
3, 0.4700, 47, 0.0112, -0.0319, -0.9996, -0.0207, -0.0384, -0.0567, 0.0000, 0.0000, 0.0000, 0.0000, 0.0000, 0.0000, 0.9676, -0.0171, 0.0001, 0.2519, -0.0027, -0.0011, 0.0002, 0.0000, 0.0000, 0.0000, 0.0000
1, 0.4500, 45, 0.0656, 0.0146, -0.9948, 0.0435, 0.0674, -0.0098, 0.0000, 0.0000, 0.0000, 0.0000, 0.0000, 0.0000, -0.2844, -0.3208, 0.7147, -0.5526, -0.0136, 0.9578, 1.2221, 0.0000, 0.0000, 0.0000, 0.0000
3, 0.4800, 48, 0.0093, -0.0337, -1.0007, 0.2762, -0.0448, 0.1032, 0.0000, 0.0000, 0.0000, 0.0000, 0.0000, 0.0000, 0.9676, -0.0171, 0.0001, 0.2518, -0.0009, 0.0006, 0.0013, 0.0000, 0.0000, 0.0000, 0.0000
1, 0.4600, 46, 0.0634, 0.0133, -0.9967, -0.1503, 0.0997, -0.0093, 0.0000, 0.0000, 0.0000, 0.0000, 0.0000, 0.0000, -0.2844, -0.3208, 0.7148, -0.5525, -0.0113, 0.9591, 1.2243, 0.0000, 0.0000, 0.0000, 0.0000
2, 0.4700, 47, -0.1970, -0.0488, -0.9954, -0.0226, 0.0146, 0.0293, 0.0000, 0.0000, 0.0000, 0.0000, 0.0000, 0.0000, 0.9948, -0.0268, 0.0968, -0.0188, 0.0033, -0.0008, 0.0155, 0.0000, 0.0000, 0.0000, 0.0000
1, 0.4700, 47, 0.0637, 0.0138, -0.9960, 0.0631, -0.1028, -0.0439, 0.0000, 0.0000, 0.0000, 0.0000, 0.0000, 0.0000, -0.2844, -0.3208, 0.7148, -0.5526, -0.0116, 0.9586, 1.2236, 0.0000, 0.0000, 0.0000, 0.0000
1, 0.4800, 48, 0.0631, 0.0123, -0.9958, -0.0626, 0.0828, 0.0254, 0.0000, 0.0000, 0.0000, 0.0000, 0.0000, 0.0000, -0.2844, -0.3208, 0.7148, -0.5525, -0.0110, 0.9600, 1.2234, 0.0000, 0.0000, 0.0000, 0.0000
1, 0.4900, 49, 0.0641, 0.0131, -0.9953, 0.1198, -0.1025, -0.0576, 0.0000, 0.0000, 0.0000, 0.0000, 0.0000, 0.0000, -0.2844, -0.3208, 0.7147, -0.5526, -0.0120, 0.9593, 1.2228, 0.0000, 0.0000, 0.0000, 0.0000
1, 0.5000, 50, 0.0651, 0.0130, -0.9950, 0.1814, 0.0657, 0.0405, 0.0000, 0.0000, 0.0000, 0.0000, 0.0000, 0.0000, -0.2845, -0.3208, 0.7148, -0.5525, -0.0130, 0.9594, 1.2226, 0.0000, 0.0000, 0.0000, 0.0000
1, 0.5100, 51, 0.0647, 0.0137, -0.9951, 0.0063, 0.0824, -0.0288, 0.0000, 0.0000, 0.0000, 0.0000, 0.0000, 0.0000, -0.2845, -0.3208, 0.7148, -0.5525, -0.0125, 0.9587, 1.2226, 0.0000, 0.0000, 0.0000, 0.0000
2, 0.4800, 48, -0.1953, -0.0500, -0.9940, -0.1925, -0.2133, 0.0629, 0.0000, 0.0000, 0.0000, 0.0000, 0.0000, 0.0000, 0.9948, -0.0267, 0.0968, -0.0188, 0.0016, 0.0004, 0.0141, 0.0000, 0.0000, 0.0000, 0.0000
3, 0.4900, 49, 0.0074, -0.0359, -1.0018, 0.0157, 0.0318, -0.1092, 0.0000, 0.0000, 0.0000, 0.0000, 0.0000, 0.0000, 0.9676, -0.0171, 0.0001, 0.2519, 0.0010, 0.0028, 0.0024, 0.0000, 0.0000, 0.0000, 0.0000
3, 0.5000, 50, 0.0076, -0.0343, -1.0001, -0.2864, -0.0714, 0.0111, 0.0000, 0.0000, 0.0000, 0.0000, 0.0000, 0.0000, 0.9676, -0.0171, 0.0001, 0.2519, 0.0009, 0.0012, 0.0007, 0.0000, 0.0000, 0.0000, 0.0000
3, 0.5100, 51, 0.0096, -0.0306, -0.9999, 0.0325, 0.0998, -0.0397, 0.0000, 0.0000, 0.0000, 0.0000, 0.0000, 0.0000, 0.9676, -0.0169, 0.0000, 0.2519, -0.0012, -0.0023, 0.0004, 0.0000, 0.0000, 0.0000, 0.0000
3, 0.5200, 52, 0.0089, -0.0352, -1.0012, 0.1715, -0.0770, 0.0326, 0.0000, 0.0000, 0.0000, 0.0000, 0.0000, 0.0000, 0.9676, -0.0169, 0.0000, 0.2519, -0.0004, 0.0025, 0.0018, 0.0000, 0.0000, 0.0000, 0.0000
2, 0.4900, 49, -0.1959, -0.0500, -0.9943, 0.1225, 0.0667, 0.0279, 0.0000, 0.0000, 0.0000, 0.0000, 0.0000, 0.0000, 0.9948, -0.0267, 0.0968, -0.0188, 0.0023, 0.0006, 0.0144, 0.0000, 0.0000, 0.0000, 0.0000
3, 0.5300, 53, 0.0080, -0.0330, -1.0022, 0.1369, 0.0625, 0.0313, 0.0000, 0.0000, 0.0000, 0.0000, 0.0000, 0.0000, 0.9676, -0.0169, 0.0000, 0.2518, 0.0005, 0.0003, 0.0028, 0.0000, 0.0000, 0.0000, 0.0000
1, 0.5200, 52, 0.0641, 0.0122, -0.9956, 0.0937, 0.0306, 0.0410, 0.0000, 0.0000, 0.0000, 0.0000, 0.0000, 0.0000, -0.2845, -0.3208, 0.7148, -0.5525, -0.0119, 0.9602, 1.2231, 0.0000, 0.0000, 0.0000, 0.0000
1, 0.5300, 53, 0.0636, 0.0130, -0.9955, 0.0617, -0.0865, -0.1155, 0.0000, 0.0000, 0.0000, 0.0000, 0.0000, 0.0000, -0.2845, -0.3208, 0.7148, -0.5525, -0.0114, 0.9593, 1.2230, 0.0000, 0.0000, 0.0000, 0.0000
3, 0.5400, 54, 0.0082, -0.0328, -1.0021, -0.0221, -0.0745, 0.0134, 0.0000, 0.0000, 0.0000, 0.0000, 0.0000, 0.0000, 0.9676, -0.0169, 0.0000, 0.2518, 0.0003, 0.0001, 0.0026, 0.0000, 0.0000, 0.0000, 0.0000
3, 0.5500, 55, 0.0087, -0.0330, -1.0016, -0.0260, -0.0758, 0.0438, 0.0000, 0.0000, 0.0000, 0.0000, 0.0000, 0.0000, 0.9676, -0.0169, 0.0000, 0.2518, -0.0003, 0.0003, 0.0022, 0.0000, 0.0000, 0.0000, 0.0000
1, 0.5400, 54, 0.0636, 0.0142, -0.9948, 0.0600, -0.0542, -0.0109, 0.0000, 0.0000, 0.0000, 0.0000, 0.0000, 0.0000, -0.2845, -0.3208, 0.7148, -0.5526, -0.0114, 0.9582, 1.2223, 0.0000, 0.0000, 0.0000, 0.0000
2, 0.5000, 50, -0.1962, -0.0482, -0.9947, 0.0350, -0.0733, 0.1679, 0.0000, 0.0000, 0.0000, 0.0000, 0.0000, 0.0000, 0.9948, -0.0267, 0.0968, -0.0188, 0.0025, -0.0013, 0.0149, 0.0000, 0.0000, 0.0000, 0.0000
2, 0.5100, 51, -0.1966, -0.0479, -0.9952, -0.0350, 0.0142, 0.0979, 0.0000, 0.0000, 0.0000, 0.0000, 0.0000, 0.0000, 0.9948, -0.0267, 0.0968, -0.0188, 0.0030, -0.0016, 0.0154, 0.0000, 0.0000, 0.0000, 0.0000
2, 0.5200, 52, -0.1964, -0.0491, -0.9948, -0.1050, 0.0142, -0.0596, 0.0000, 0.0000, 0.0000, 0.0000, 0.0000, 0.0000, 0.9948, -0.0267, 0.0968, -0.0188, 0.0028, -0.0004, 0.0150, 0.0000, 0.0000, 0.0000, 0.0000
2, 0.5300, 53, -0.1959, -0.0510, -0.9946, -0.1575, -0.0383, 0.0104, 0.0000, 0.0000, 0.0000, 0.0000, 0.0000, 0.0000, 0.9948, -0.0267, 0.0968, -0.0188, 0.0023, 0.0016, 0.0148, 0.0000, 0.0000, 0.0000, 0.0000
2, 0.5400, 54, -0.1950, -0.0507, -0.9940, 0.1050, -0.0208, -0.0596, 0.0000, 0.0000, 0.0000, 0.0000, 0.0000, 0.0000, 0.9948, -0.0267, 0.0968, -0.0188, 0.0013, 0.0012, 0.0141, 0.0000, 0.0000, 0.0000, 0.0000
1, 0.5500, 55, 0.0648, 0.0134, -0.9945, -0.0482, 0.0621, 0.1112, 0.0000, 0.0000, 0.0000, 0.0000, 0.0000, 0.0000, -0.2845, -0.3207, 0.7147, -0.5526, -0.0127, 0.9590, 1.2221, 0.0000, 0.0000, 0.0000, 0.0000
1, 0.5600, 56, 0.0637, 0.0142, -0.9938, 0.0418, 0.0140, -0.0111, 0.0000, 0.0000, 0.0000, 0.0000, 0.0000, 0.0000, -0.2845, -0.3207, 0.7147, -0.5526, -0.0115, 0.9582, 1.2213, 0.0000, 0.0000, 0.0000, 0.0000
3, 0.5600, 56, 0.0074, -0.0328, -1.0027, 0.0562, -0.0238, -0.0097, 0.0000, 0.0000, 0.0000, 0.0000, 0.0000, 0.0000, 0.9676, -0.0168, 0.0001, 0.2518, 0.0010, 0.0001, 0.0033, 0.0000, 0.0000, 0.0000, 0.0000
3, 0.5700, 57, 0.0056, -0.0340, -1.0010, -0.1575, -0.0758, 0.1110, 0.0000, 0.0000, 0.0000, 0.0000, 0.0000, 0.0000, 0.9676, -0.0168, 0.0001, 0.2518, 0.0027, 0.0014, 0.0015, 0.0000, 0.0000, 0.0000, 0.0000
3, 0.5800, 58, 0.0085, -0.0336, -1.0004, 0.0375, -0.0075, 0.0599, 0.0000, 0.0000, 0.0000, 0.0000, 0.0000, 0.0000, 0.9676, -0.0168, 0.0001, 0.2518, -0.0002, 0.0010, 0.0009, 0.0000, 0.0000, 0.0000, 0.0000
1, 0.5700, 57, 0.0620, 0.0131, -0.9953, 0.2358, 0.0341, -0.0643, 0.0000, 0.0000, 0.0000, 0.0000, 0.0000, 0.0000, -0.2845, -0.3207, 0.7147, -0.5526, -0.0097, 0.9593, 1.2228, 0.0000, 0.0000, 0.0000, 0.0000
2, 0.5500, 55, -0.1976, -0.0508, -0.9951, -0.1225, 0.0317, 0.0454, 0.0000, 0.0000, 0.0000, 0.0000, 0.0000, 0.0000, 0.9948, -0.0267, 0.0968, -0.0188, 0.0039, 0.0014, 0.0153, 0.0000, 0.0000, 0.0000, 0.0000
3, 0.5900, 59, 0.0081, -0.0310, -1.0020, 0.1971, 0.0782, 0.0258, 0.0000, 0.0000, 0.0000, 0.0000, 0.0000, 0.0000, 0.9676, -0.0168, 0.0001, 0.2518, 0.0003, -0.0016, 0.0026, 0.0000, 0.0000, 0.0000, 0.0000
2, 0.5600, 56, -0.1971, -0.0473, -0.9957, 0.1050, -0.0033, 0.0454, 0.0000, 0.0000, 0.0000, 0.0000, 0.0000, 0.0000, 0.9948, -0.0267, 0.0968, -0.0188, 0.0034, -0.0021, 0.0158, 0.0000, 0.0000, 0.0000, 0.0000
3, 0.6000, 60, 0.0089, -0.0337, -1.0002, 0.1799, -0.0249, -0.0261, 0.0000, 0.0000, 0.0000, 0.0000, 0.0000, 0.0000, 0.9676, -0.0169, 0.0001, 0.2518, -0.0006, 0.0011, 0.0008, 0.0000, 0.0000, 0.0000, 0.0000
2, 0.5700, 57, -0.1965, -0.0494, -0.9951, -0.0129, 0.0238, 0.1381, 0.0000, 0.0000, 0.0000, 0.0000, 0.0000, 0.0000, 0.9948, -0.0267, 0.0968, -0.0188, 0.0029, 0.0000, 0.0153, 0.0000, 0.0000, 0.0000, 0.0000
2, 0.5800, 58, -0.1990, -0.0505, -0.9956, -0.0082, 0.1909, -0.0667, 0.0000, 0.0000, 0.0000, 0.0000, 0.0000, 0.0000, 0.9948, -0.0268, 0.0968, -0.0188, 0.0054, 0.0011, 0.0158, 0.0000, 0.0000, 0.0000, 0.0000
1, 0.5800, 58, 0.0639, 0.0130, -0.9948, 0.0423, 0.0146, -0.0461, 0.0000, 0.0000, 0.0000, 0.0000, 0.0000, 0.0000, -0.2845, -0.3207, 0.7147, -0.5526, -0.0117, 0.9594, 1.2222, 0.0000, 0.0000, 0.0000, 0.0000
1, 0.5900, 59, 0.0641, 0.0139, -0.9954, 0.0060, 0.0301, 0.0238, 0.0000, 0.0000, 0.0000, 0.0000, 0.0000, 0.0000, -0.2845, -0.3207, 0.7147, -0.5526, -0.0119, 0.9585, 1.2229, 0.0000, 0.0000, 0.0000, 0.0000
2, 0.5900, 59, -0.1960, -0.0530, -0.9958, 0.0093, 0.0509, -0.0842, 0.0000, 0.0000, 0.0000, 0.0000, 0.0000, 0.0000, 0.9948, -0.0268, 0.0968, -0.0188, 0.0024, 0.0035, 0.0160, 0.0000, 0.0000, 0.0000, 0.0000
1, 0.6000, 60, 0.0631, 0.0126, -0.9949, -0.1207, 0.0703, -0.0250, 0.0000, 0.0000, 0.0000, 0.0000, 0.0000, 0.0000, -0.2844, -0.3208, 0.7147, -0.5526, -0.0109, 0.9597, 1.2224, 0.0000, 0.0000, 0.0000, 0.0000
3, 0.6100, 61, 0.0078, -0.0345, -1.0019, -0.1554, -0.0043, 0.0058, 0.0000, 0.0000, 0.0000, 0.0000, 0.0000, 0.0000, 0.9676, -0.0170, 0.0001, 0.2518, 0.0006, 0.0018, 0.0025, 0.0000, 0.0000, 0.0000, 0.0000
2, 0.6000, 60, -0.1952, -0.0508, -0.9954, -0.0082, 0.0159, -0.0667, 0.0000, 0.0000, 0.0000, 0.0000, 0.0000, 0.0000, 0.9948, -0.0268, 0.0968, -0.0188, 0.0016, 0.0012, 0.0155, 0.0000, 0.0000, 0.0000, 0.0000
2, 0.6100, 61, -0.1978, -0.0490, -0.9959, 0.1318, -0.0191, 0.0733, 0.0000, 0.0000, 0.0000, 0.0000, 0.0000, 0.0000, 0.9948, -0.0268, 0.0968, -0.0188, 0.0042, -0.0006, 0.0161, 0.0000, 0.0000, 0.0000, 0.0000
3, 0.6200, 62, 0.0077, -0.0335, -1.0007, 0.0189, -0.0257, 0.1122, 0.0000, 0.0000, 0.0000, 0.0000, 0.0000, 0.0000, 0.9676, -0.0170, 0.0001, 0.2518, 0.0007, 0.0006, 0.0013, 0.0000, 0.0000, 0.0000, 0.0000
1, 0.6100, 61, 0.0636, 0.0159, -0.9965, 0.0551, 0.0373, 0.0094, 0.0000, 0.0000, 0.0000, 0.0000, 0.0000, 0.0000, -0.2845, -0.3208, 0.7147, -0.5526, -0.0115, 0.9565, 1.2240, 0.0000, 0.0000, 0.0000, 0.0000
2, 0.6200, 62, -0.1990, -0.0491, -0.9958, 0.0968, 0.0509, -0.0142, 0.0000, 0.0000, 0.0000, 0.0000, 0.0000, 0.0000, 0.9948, -0.0268, 0.0968, -0.0188, 0.0054, -0.0005, 0.0160, 0.0000, 0.0000, 0.0000, 0.0000
3, 0.6300, 63, 0.0067, -0.0348, -1.0014, 0.1444, 0.0444, 0.0081, 0.0000, 0.0000, 0.0000, 0.0000, 0.0000, 0.0000, 0.9676, -0.0170, 0.0001, 0.2518, 0.0016, 0.0019, 0.0019, 0.0000, 0.0000, 0.0000, 0.0000
1, 0.6200, 62, 0.0627, 0.0134, -0.9958, 0.0375, 0.0025, 0.0271, 0.0000, 0.0000, 0.0000, 0.0000, 0.0000, 0.0000, -0.2845, -0.3208, 0.7147, -0.5526, -0.0106, 0.9590, 1.2233, 0.0000, 0.0000, 0.0000, 0.0000
2, 0.6300, 63, -0.1963, -0.0488, -0.9949, 0.0268, -0.0191, 0.0208, 0.0000, 0.0000, 0.0000, 0.0000, 0.0000, 0.0000, 0.9948, -0.0266, 0.0968, -0.0188, 0.0027, -0.0007, 0.0151, 0.0000, 0.0000, 0.0000, 0.0000
3, 0.6400, 64, 0.0084, -0.0352, -1.0010, -0.3821, 0.0184, -0.1361, 0.0000, 0.0000, 0.0000, 0.0000, 0.0000, 0.0000, 0.9676, -0.0169, 0.0001, 0.2518, -0.0001, 0.0023, 0.0016, 0.0000, 0.0000, 0.0000, 0.0000
1, 0.6300, 63, 0.0636, 0.0142, -0.9944, -0.0868, 0.0861, 0.0621, 0.0000, 0.0000, 0.0000, 0.0000, 0.0000, 0.0000, -0.2845, -0.3208, 0.7147, -0.5526, -0.0115, 0.9582, 1.2219, 0.0000, 0.0000, 0.0000, 0.0000
3, 0.6500, 65, 0.0094, -0.0322, -1.0018, 0.0621, -0.0357, -0.0328, 0.0000, 0.0000, 0.0000, 0.0000, 0.0000, 0.0000, 0.9676, -0.0169, 0.0001, 0.2518, -0.0011, -0.0006, 0.0024, 0.0000, 0.0000, 0.0000, 0.0000
2, 0.6400, 64, -0.1968, -0.0491, -0.9945, 0.0268, -0.0366, 0.0033, 0.0000, 0.0000, 0.0000, 0.0000, 0.0000, 0.0000, 0.9948, -0.0266, 0.0968, -0.0188, 0.0033, -0.0002, 0.0147, 0.0000, 0.0000, 0.0000, 0.0000
1, 0.6400, 64, 0.0633, 0.0137, -0.9950, -0.0336, -0.0166, 0.0973, 0.0000, 0.0000, 0.0000, 0.0000, 0.0000, 0.0000, -0.2845, -0.3208, 0.7147, -0.5526, -0.0112, 0.9587, 1.2225, 0.0000, 0.0000, 0.0000, 0.0000
1, 0.6500, 65, 0.0626, 0.0128, -0.9970, -0.0862, 0.1042, 0.0096, 0.0000, 0.0000, 0.0000, 0.0000, 0.0000, 0.0000, -0.2845, -0.3208, 0.7147, -0.5526, -0.0105, 0.9596, 1.2245, 0.0000, 0.0000, 0.0000, 0.0000
3, 0.6600, 66, 0.0100, -0.0351, -0.9982, -0.0033, -0.0129, -0.0043, 0.0000, 0.0000, 0.0000, 0.0000, 0.0000, 0.0000, 0.9676, -0.0170, 0.0001, 0.2518, -0.0017, 0.0022, -0.0012, 0.0000, 0.0000, 0.0000, 0.0000
2, 0.6500, 65, -0.1960, -0.0499, -0.9944, 0.0443, 0.0684, -0.0317, 0.0000, 0.0000, 0.0000, 0.0000, 0.0000, 0.0000, 0.9948, -0.0266, 0.0968, -0.0188, 0.0024, 0.0006, 0.0146, 0.0000, 0.0000, 0.0000, 0.0000
2, 0.6600, 66, -0.1961, -0.0486, -0.9955, 0.1843, 0.0159, 0.0208, 0.0000, 0.0000, 0.0000, 0.0000, 0.0000, 0.0000, 0.9948, -0.0266, 0.0968, -0.0188, 0.0026, -0.0007, 0.0156, 0.0000, 0.0000, 0.0000, 0.0000
1, 0.6600, 66, 0.0641, 0.0126, -0.9955, 0.0208, -0.0138, -0.0251, 0.0000, 0.0000, 0.0000, 0.0000, 0.0000, 0.0000, -0.2845, -0.3208, 0.7147, -0.5526, -0.0120, 0.9598, 1.2230, 0.0000, 0.0000, 0.0000, 0.0000
3, 0.6700, 67, 0.0095, -0.0336, -1.0026, 0.0495, -0.0309, -0.0037, 0.0000, 0.0000, 0.0000, 0.0000, 0.0000, 0.0000, 0.9676, -0.0170, 0.0001, 0.2518, -0.0011, 0.0005, 0.0032, 0.0000, 0.0000, 0.0000, 0.0000
1, 0.6700, 67, 0.0637, 0.0132, -0.9948, -0.0343, 0.0689, 0.0969, 0.0000, 0.0000, 0.0000, 0.0000, 0.0000, 0.0000, -0.2845, -0.3208, 0.7147, -0.5526, -0.0116, 0.9592, 1.2224, 0.0000, 0.0000, 0.0000, 0.0000
2, 0.6700, 67, -0.1978, -0.0502, -0.9955, 0.1124, -0.0246, -0.0496, 0.0000, 0.0000, 0.0000, 0.0000, 0.0000, 0.0000, 0.9948, -0.0266, 0.0968, -0.0188, 0.0042, 0.0008, 0.0156, 0.0000, 0.0000, 0.0000, 0.0000
2, 0.6800, 68, -0.1970, -0.0505, -0.9944, 0.1416, -0.0060, 0.0366, 0.0000, 0.0000, 0.0000, 0.0000, 0.0000, 0.0000, 0.9948, -0.0266, 0.0967, -0.0188, 0.0034, 0.0011, 0.0145, 0.0000, 0.0000, 0.0000, 0.0000
3, 0.6800, 68, 0.0085, -0.0328, -1.0010, -0.0200, 0.0056, -0.0570, 0.0000, 0.0000, 0.0000, 0.0000, 0.0000, 0.0000, 0.9676, -0.0170, 0.0001, 0.2518, -0.0000, -0.0002, 0.0016, 0.0000, 0.0000, 0.0000, 0.0000
1, 0.6800, 68, 0.0625, 0.0124, -0.9958, -0.1202, 0.0710, -0.0600, 0.0000, 0.0000, 0.0000, 0.0000, 0.0000, 0.0000, -0.2845, -0.3208, 0.7148, -0.5526, -0.0103, 0.9600, 1.2233, 0.0000, 0.0000, 0.0000, 0.0000
3, 0.6900, 69, 0.0098, -0.0320, -1.0022, -0.0563, 0.0222, 0.0125, 0.0000, 0.0000, 0.0000, 0.0000, 0.0000, 0.0000, 0.9676, -0.0170, 0.0001, 0.2518, -0.0013, -0.0010, 0.0028, 0.0000, 0.0000, 0.0000, 0.0000
2, 0.6900, 69, -0.1965, -0.0486, -0.9943, 0.1766, -0.0060, 0.0716, 0.0000, 0.0000, 0.0000, 0.0000, 0.0000, 0.0000, 0.9948, -0.0266, 0.0967, -0.0188, 0.0031, -0.0008, 0.0145, 0.0000, 0.0000, 0.0000, 0.0000
1, 0.6900, 69, 0.0636, 0.0126, -0.9959, 0.0025, -0.0149, 0.0273, 0.0000, 0.0000, 0.0000, 0.0000, 0.0000, 0.0000, -0.2845, -0.3208, 0.7148, -0.5526, -0.0114, 0.9598, 1.2235, 0.0000, 0.0000, 0.0000, 0.0000
1, 0.7000, 70, 0.0619, 0.0111, -0.9949, 0.1164, -0.0069, -0.1132, 0.0000, 0.0000, 0.0000, 0.0000, 0.0000, 0.0000, -0.2844, -0.3208, 0.7147, -0.5526, -0.0098, 0.9613, 1.2224, 0.0000, 0.0000, 0.0000, 0.0000
3, 0.7000, 70, 0.0094, -0.0340, -1.0018, -0.0208, 0.0739, 0.0124, 0.0000, 0.0000, 0.0000, 0.0000, 0.0000, 0.0000, 0.9676, -0.0170, 0.0001, 0.2518, -0.0009, 0.0010, 0.0024, 0.0000, 0.0000, 0.0000, 0.0000
2, 0.7000, 70, -0.1981, -0.0497, -0.9948, 0.0366, -0.0235, -0.0334, 0.0000, 0.0000, 0.0000, 0.0000, 0.0000, 0.0000, 0.9948, -0.0266, 0.0967, -0.0188, 0.0047, 0.0003, 0.0149, 0.0000, 0.0000, 0.0000, 0.0000
3, 0.7100, 71, 0.0099, -0.0338, -1.0013, 0.0847, 0.0898, 0.0307, 0.0000, 0.0000, 0.0000, 0.0000, 0.0000, 0.0000, 0.9676, -0.0171, -0.0001, 0.2518, -0.0013, 0.0008, 0.0019, 0.0000, 0.0000, 0.0000, 0.0000
1, 0.7100, 71, 0.0643, 0.0125, -0.9953, -0.0234, -0.0665, 0.0272, 0.0000, 0.0000, 0.0000, 0.0000, 0.0000, 0.0000, -0.2844, -0.3208, 0.7147, -0.5526, -0.0124, 0.9599, 1.2227, 0.0000, 0.0000, 0.0000, 0.0000
2, 0.7100, 71, -0.1949, -0.0504, -0.9936, -0.2609, -0.0760, -0.0159, 0.0000, 0.0000, 0.0000, 0.0000, 0.0000, 0.0000, 0.9948, -0.0266, 0.0967, -0.0188, 0.0014, 0.0010, 0.0137, 0.0000, 0.0000, 0.0000, 0.0000
3, 0.7200, 72, 0.0067, -0.0366, -1.0028, -0.0892, -0.0441, -0.1446, 0.0000, 0.0000, 0.0000, 0.0000, 0.0000, 0.0000, 0.9676, -0.0171, -0.0001, 0.2518, 0.0021, 0.0036, 0.0034, 0.0000, 0.0000, 0.0000, 0.0000
1, 0.7200, 72, 0.0629, 0.0150, -0.9950, -0.0761, 0.0024, -0.0254, 0.0000, 0.0000, 0.0000, 0.0000, 0.0000, 0.0000, -0.2844, -0.3208, 0.7147, -0.5526, -0.0110, 0.9574, 1.2225, 0.0000, 0.0000, 0.0000, 0.0000
2, 0.7200, 72, -0.1974, -0.0483, -0.9952, -0.2084, 0.0290, 0.0366, 0.0000, 0.0000, 0.0000, 0.0000, 0.0000, 0.0000, 0.9948, -0.0266, 0.0967, -0.0188, 0.0040, -0.0010, 0.0153, 0.0000, 0.0000, 0.0000, 0.0000
3, 0.7300, 73, 0.0086, -0.0339, -1.0006, -0.0199, -0.0462, -0.0741, 0.0000, 0.0000, 0.0000, 0.0000, 0.0000, 0.0000, 0.9676, -0.0171, -0.0001, 0.2519, 0.0001, 0.0009, 0.0012, 0.0000, 0.0000, 0.0000, 0.0000
1, 0.7300, 73, 0.0639, 0.0116, -0.9955, 0.0989, -0.0317, 0.0615, 0.0000, 0.0000, 0.0000, 0.0000, 0.0000, 0.0000, -0.2844, -0.3208, 0.7147, -0.5526, -0.0120, 0.9608, 1.2229, 0.0000, 0.0000, 0.0000, 0.0000
3, 0.7400, 74, 0.0064, -0.0321, -0.9998, 0.0519, -0.0109, -0.1436, 0.0000, 0.0000, 0.0000, 0.0000, 0.0000, 0.0000, 0.9676, -0.0171, -0.0001, 0.2519, 0.0023, -0.0009, 0.0004, 0.0000, 0.0000, 0.0000, 0.0000
2, 0.7300, 73, -0.1966, -0.0494, -0.9950, -0.0509, -0.0760, 0.0366, 0.0000, 0.0000, 0.0000, 0.0000, 0.0000, 0.0000, 0.9948, -0.0267, 0.0968, -0.0188, 0.0031, 0.0001, 0.0151, 0.0000, 0.0000, 0.0000, 0.0000
1, 0.7400, 74, 0.0630, 0.0118, -0.9955, 0.0294, -0.1005, 0.0446, 0.0000, 0.0000, 0.0000, 0.0000, 0.0000, 0.0000, -0.2844, -0.3208, 0.7147, -0.5526, -0.0111, 0.9606, 1.2229, 0.0000, 0.0000, 0.0000, 0.0000
2, 0.7400, 74, -0.1979, -0.0495, -0.9950, 0.1416, -0.0585, -0.0334, 0.0000, 0.0000, 0.0000, 0.0000, 0.0000, 0.0000, 0.9948, -0.0267, 0.0968, -0.0188, 0.0043, 0.0001, 0.0152, 0.0000, 0.0000, 0.0000, 0.0000
3, 0.7500, 75, 0.0064, -0.0339, -1.0004, -0.1591, -0.0095, -0.1059, 0.0000, 0.0000, 0.0000, 0.0000, 0.0000, 0.0000, 0.9676, -0.0171, -0.0001, 0.2519, 0.0023, 0.0009, 0.0010, 0.0000, 0.0000, 0.0000, 0.0000
1, 0.7500, 75, 0.0647, 0.0132, -0.9937, 0.0122, -0.0309, -0.0255, 0.0000, 0.0000, 0.0000, 0.0000, 0.0000, 0.0000, -0.2843, -0.3209, 0.7147, -0.5527, -0.0129, 0.9592, 1.2212, 0.0000, 0.0000, 0.0000, 0.0000
3, 0.7600, 76, 0.0091, -0.0344, -1.0004, 0.1236, -0.0165, 0.0503, 0.0000, 0.0000, 0.0000, 0.0000, 0.0000, 0.0000, 0.9676, -0.0172, -0.0001, 0.2519, -0.0004, 0.0014, 0.0009, 0.0000, 0.0000, 0.0000, 0.0000
2, 0.7500, 75, -0.1975, -0.0495, -0.9949, 0.0891, -0.0060, -0.0509, 0.0000, 0.0000, 0.0000, 0.0000, 0.0000, 0.0000, 0.9948, -0.0267, 0.0968, -0.0188, 0.0039, 0.0001, 0.0151, 0.0000, 0.0000, 0.0000, 0.0000
1, 0.7600, 76, 0.0632, 0.0150, -0.9955, 0.1001, -0.0820, 0.0093, 0.0000, 0.0000, 0.0000, 0.0000, 0.0000, 0.0000, -0.2843, -0.3209, 0.7147, -0.5527, -0.0115, 0.9574, 1.2230, 0.0000, 0.0000, 0.0000, 0.0000
2, 0.7600, 76, -0.1964, -0.0497, -0.9948, 0.0016, -0.0585, -0.0334, 0.0000, 0.0000, 0.0000, 0.0000, 0.0000, 0.0000, 0.9948, -0.0267, 0.0968, -0.0188, 0.0028, 0.0003, 0.0150, 0.0000, 0.0000, 0.0000, 0.0000
3, 0.7700, 77, 0.0100, -0.0339, -1.0014, -0.1578, -0.0126, 0.0129, 0.0000, 0.0000, 0.0000, 0.0000, 0.0000, 0.0000, 0.9676, -0.0171, -0.0001, 0.2519, -0.0012, 0.0008, 0.0020, 0.0000, 0.0000, 0.0000, 0.0000
3, 0.7800, 78, 0.0092, -0.0328, -1.0025, 0.0162, -0.1209, 0.1200, 0.0000, 0.0000, 0.0000, 0.0000, 0.0000, 0.0000, 0.9676, -0.0171, -0.0001, 0.2519, -0.0004, -0.0003, 0.0031, 0.0000, 0.0000, 0.0000, 0.0000
1, 0.7700, 77, 0.0642, 0.0116, -0.9950, 0.1184, -0.0634, -0.0607, 0.0000, 0.0000, 0.0000, 0.0000, 0.0000, 0.0000, -0.2843, -0.3209, 0.7147, -0.5527, -0.0126, 0.9609, 1.2225, 0.0000, 0.0000, 0.0000, 0.0000
2, 0.7700, 77, -0.1987, -0.0485, -0.9944, 0.0366, -0.0235, -0.0334, 0.0000, 0.0000, 0.0000, 0.0000, 0.0000, 0.0000, 0.9948, -0.0267, 0.0968, -0.0188, 0.0051, -0.0009, 0.0146, 0.0000, 0.0000, 0.0000, 0.0000
1, 0.7800, 78, 0.0628, 0.0131, -0.9948, -0.0411, 0.0024, -0.0081, 0.0000, 0.0000, 0.0000, 0.0000, 0.0000, 0.0000, -0.2843, -0.3209, 0.7147, -0.5527, -0.0112, 0.9593, 1.2222, 0.0000, 0.0000, 0.0000, 0.0000
3, 0.7900, 79, 0.0080, -0.0343, -1.0013, 0.0011, -0.0141, -0.0032, 0.0000, 0.0000, 0.0000, 0.0000, 0.0000, 0.0000, 0.9676, -0.0171, -0.0001, 0.2519, 0.0008, 0.0012, 0.0019, 0.0000, 0.0000, 0.0000, 0.0000
2, 0.7800, 78, -0.1975, -0.0504, -0.9952, 0.0580, 0.2007, -0.1006, 0.0000, 0.0000, 0.0000, 0.0000, 0.0000, 0.0000, 0.9948, -0.0268, 0.0968, -0.0188, 0.0039, 0.0009, 0.0153, 0.0000, 0.0000, 0.0000, 0.0000
2, 0.7900, 79, -0.1974, -0.0511, -0.9952, -0.0645, 0.0257, 0.0219, 0.0000, 0.0000, 0.0000, 0.0000, 0.0000, 0.0000, 0.9948, -0.0267, 0.0968, -0.0188, 0.0038, 0.0015, 0.0154, 0.0000, 0.0000, 0.0000, 0.0000
3, 0.8000, 80, 0.0090, -0.0343, -0.9988, -0.1224, -0.0993, -0.0211, 0.0000, 0.0000, 0.0000, 0.0000, 0.0000, 0.0000, 0.9676, -0.0171, -0.0001, 0.2519, -0.0002, 0.0012, -0.0006, 0.0000, 0.0000, 0.0000, 0.0000
1, 0.7900, 79, 0.0626, 0.0133, -0.9942, 0.0645, -0.0136, -0.0083, 0.0000, 0.0000, 0.0000, 0.0000, 0.0000, 0.0000, -0.2843, -0.3209, 0.7147, -0.5527, -0.0109, 0.9592, 1.2217, 0.0000, 0.0000, 0.0000, 0.0000
2, 0.8000, 80, -0.1954, -0.0489, -0.9945, -0.0295, 0.1482, -0.0306, 0.0000, 0.0000, 0.0000, 0.0000, 0.0000, 0.0000, 0.9948, -0.0267, 0.0968, -0.0188, 0.0019, -0.0007, 0.0147, 0.0000, 0.0000, 0.0000, 0.0000
3, 0.8100, 81, 0.0071, -0.0337, -1.0029, -0.1228, 0.0041, 0.0306, 0.0000, 0.0000, 0.0000, 0.0000, 0.0000, 0.0000, 0.9676, -0.0171, -0.0000, 0.2519, 0.0017, 0.0006, 0.0035, 0.0000, 0.0000, 0.0000, 0.0000
1, 0.8000, 80, 0.0639, 0.0132, -0.9951, -0.0881, -0.0100, 0.0426, 0.0000, 0.0000, 0.0000, 0.0000, 0.0000, 0.0000, -0.2843, -0.3209, 0.7147, -0.5526, -0.0123, 0.9592, 1.2226, 0.0000, 0.0000, 0.0000, 0.0000
2, 0.8100, 81, -0.1948, -0.0502, -0.9953, 0.0755, -0.0793, -0.0306, 0.0000, 0.0000, 0.0000, 0.0000, 0.0000, 0.0000, 0.9948, -0.0268, 0.0968, -0.0188, 0.0012, 0.0006, 0.0155, 0.0000, 0.0000, 0.0000, 0.0000
3, 0.8200, 82, 0.0087, -0.0345, -1.0013, 0.0178, -0.0845, 0.0324, 0.0000, 0.0000, 0.0000, 0.0000, 0.0000, 0.0000, 0.9676, -0.0171, -0.0000, 0.2519, -0.0000, 0.0014, 0.0019, 0.0000, 0.0000, 0.0000, 0.0000
1, 0.8100, 81, 0.0628, 0.0117, -0.9971, -0.0272, -0.0351, -0.0816, 0.0000, 0.0000, 0.0000, 0.0000, 0.0000, 0.0000, -0.2843, -0.3209, 0.7147, -0.5526, -0.0112, 0.9606, 1.2247, 0.0000, 0.0000, 0.0000, 0.0000
3, 0.8300, 83, 0.0089, -0.0323, -1.0013, 0.1768, 0.0006, 0.0332, 0.0000, 0.0000, 0.0000, 0.0000, 0.0000, 0.0000, 0.9676, -0.0171, -0.0000, 0.2519, -0.0002, -0.0008, 0.0019, 0.0000, 0.0000, 0.0000, 0.0000
2, 0.8200, 82, -0.1958, -0.0504, -0.9952, -0.1170, -0.0093, 0.0219, 0.0000, 0.0000, 0.0000, 0.0000, 0.0000, 0.0000, 0.9948, -0.0267, 0.0968, -0.0188, 0.0022, 0.0008, 0.0154, 0.0000, 0.0000, 0.0000, 0.0000
1, 0.8200, 82, 0.0636, 0.0127, -0.9950, 0.0574, 0.1862, 0.0218, 0.0000, 0.0000, 0.0000, 0.0000, 0.0000, 0.0000, -0.2843, -0.3209, 0.7147, -0.5526, -0.0119, 0.9597, 1.2226, 0.0000, 0.0000, 0.0000, 0.0000
3, 0.8400, 84, 0.0081, -0.0315, -1.0015, -0.1223, -0.0126, -0.0043, 0.0000, 0.0000, 0.0000, 0.0000, 0.0000, 0.0000, 0.9676, -0.0171, -0.0000, 0.2519, 0.0006, -0.0016, 0.0021, 0.0000, 0.0000, 0.0000, 0.0000
2, 0.8300, 83, -0.1981, -0.0496, -0.9944, 0.0055, -0.0093, 0.0569, 0.0000, 0.0000, 0.0000, 0.0000, 0.0000, 0.0000, 0.9948, -0.0267, 0.0968, -0.0188, 0.0045, 0.0000, 0.0146, 0.0000, 0.0000, 0.0000, 0.0000
2, 0.8400, 84, -0.1976, -0.0488, -0.9948, 0.0930, -0.0618, -0.0306, 0.0000, 0.0000, 0.0000, 0.0000, 0.0000, 0.0000, 0.9948, -0.0267, 0.0968, -0.0188, 0.0040, -0.0007, 0.0149, 0.0000, 0.0000, 0.0000, 0.0000
1, 0.8300, 83, 0.0639, 0.0149, -0.9955, -0.0651, 0.0126, 0.0929, 0.0000, 0.0000, 0.0000, 0.0000, 0.0000, 0.0000, -0.2843, -0.3209, 0.7147, -0.5526, -0.0122, 0.9575, 1.2231, 0.0000, 0.0000, 0.0000, 0.0000
1, 0.8400, 84, 0.0648, 0.0139, -0.9946, 0.0221, -0.0049, 0.1626, 0.0000, 0.0000, 0.0000, 0.0000, 0.0000, 0.0000, -0.2843, -0.3209, 0.7147, -0.5526, -0.0132, 0.9585, 1.2222, 0.0000, 0.0000, 0.0000, 0.0000
1, 0.8500, 85, 0.0631, 0.0133, -0.9958, -0.0111, -0.0717, 0.0582, 0.0000, 0.0000, 0.0000, 0.0000, 0.0000, 0.0000, -0.2842, -0.3210, 0.7147, -0.5527, -0.0115, 0.9591, 1.2233, 0.0000, 0.0000, 0.0000, 0.0000
2, 0.8500, 85, -0.1973, -0.0493, -0.9949, 0.2155, -0.0093, -0.0306, 0.0000, 0.0000, 0.0000, 0.0000, 0.0000, 0.0000, 0.9948, -0.0267, 0.0968, -0.0188, 0.0037, -0.0002, 0.0150, 0.0000, 0.0000, 0.0000, 0.0000
3, 0.8500, 85, 0.0081, -0.0342, -1.0002, 0.0721, 0.0376, -0.0204, 0.0000, 0.0000, 0.0000, 0.0000, 0.0000, 0.0000, 0.9676, -0.0171, -0.0000, 0.2519, 0.0006, 0.0010, 0.0008, 0.0000, 0.0000, 0.0000, 0.0000
3, 0.8600, 86, 0.0102, -0.0338, -1.0013, -0.1358, -0.0372, 0.0073, 0.0000, 0.0000, 0.0000, 0.0000, 0.0000, 0.0000, 0.9676, -0.0172, -0.0001, 0.2519, -0.0014, 0.0007, 0.0018, 0.0000, 0.0000, 0.0000, 0.0000
1, 0.8600, 86, 0.0637, 0.0130, -0.9964, -0.1337, -0.0549, 0.0062, 0.0000, 0.0000, 0.0000, 0.0000, 0.0000, 0.0000, -0.2842, -0.3210, 0.7147, -0.5526, -0.0122, 0.9594, 1.2240, 0.0000, 0.0000, 0.0000, 0.0000
2, 0.8600, 86, -0.1973, -0.0497, -0.9941, 0.2330, -0.0793, 0.0569, 0.0000, 0.0000, 0.0000, 0.0000, 0.0000, 0.0000, 0.9948, -0.0267, 0.0968, -0.0188, 0.0036, 0.0002, 0.0143, 0.0000, 0.0000, 0.0000, 0.0000
1, 0.8700, 87, 0.0646, 0.0142, -0.9969, 0.1109, 0.1012, 0.0220, 0.0000, 0.0000, 0.0000, 0.0000, 0.0000, 0.0000, -0.2842, -0.3210, 0.7147, -0.5527, -0.0131, 0.9582, 1.2245, 0.0000, 0.0000, 0.0000, 0.0000
3, 0.8700, 87, 0.0081, -0.0338, -1.0001, -0.1879, 0.0681, -0.0114, 0.0000, 0.0000, 0.0000, 0.0000, 0.0000, 0.0000, 0.9676, -0.0172, -0.0001, 0.2519, 0.0007, 0.0007, 0.0007, 0.0000, 0.0000, 0.0000, 0.0000
3, 0.8800, 88, 0.0079, -0.0339, -1.0036, -0.1357, 0.0495, 0.0241, 0.0000, 0.0000, 0.0000, 0.0000, 0.0000, 0.0000, 0.9676, -0.0171, -0.0001, 0.2519, 0.0009, 0.0008, 0.0042, 0.0000, 0.0000, 0.0000, 0.0000
1, 0.8800, 88, 0.0638, 0.0111, -0.9963, -0.1168, -0.0038, 0.0233, 0.0000, 0.0000, 0.0000, 0.0000, 0.0000, 0.0000, -0.2842, -0.3210, 0.7147, -0.5526, -0.0122, 0.9613, 1.2239, 0.0000, 0.0000, 0.0000, 0.0000
2, 0.8700, 87, -0.1957, -0.0507, -0.9955, 0.0230, -0.0443, -0.0831, 0.0000, 0.0000, 0.0000, 0.0000, 0.0000, 0.0000, 0.9948, -0.0267, 0.0968, -0.0188, 0.0021, 0.0011, 0.0157, 0.0000, 0.0000, 0.0000, 0.0000
1, 0.8900, 89, 0.0641, 0.0138, -0.9957, 0.0243, -0.0191, 0.0055, 0.0000, 0.0000, 0.0000, 0.0000, 0.0000, 0.0000, -0.2842, -0.3210, 0.7147, -0.5526, -0.0125, 0.9586, 1.2233, 0.0000, 0.0000, 0.0000, 0.0000
3, 0.8900, 89, 0.0072, -0.0329, -1.0026, -0.2215, -0.0162, -0.1334, 0.0000, 0.0000, 0.0000, 0.0000, 0.0000, 0.0000, 0.9676, -0.0171, -0.0001, 0.2519, 0.0017, -0.0002, 0.0032, 0.0000, 0.0000, 0.0000, 0.0000
2, 0.8800, 88, -0.1966, -0.0485, -0.9950, 0.0533, -0.0818, 0.0597, 0.0000, 0.0000, 0.0000, 0.0000, 0.0000, 0.0000, 0.9948, -0.0266, 0.0968, -0.0188, 0.0030, -0.0010, 0.0152, 0.0000, 0.0000, 0.0000, 0.0000
3, 0.9000, 90, 0.0092, -0.0338, -1.0010, 0.0573, -0.0230, 0.0612, 0.0000, 0.0000, 0.0000, 0.0000, 0.0000, 0.0000, 0.9676, -0.0171, -0.0001, 0.2519, -0.0003, 0.0007, 0.0016, 0.0000, 0.0000, 0.0000, 0.0000
1, 0.9000, 90, 0.0620, 0.0117, -0.9975, -0.0934, 0.0299, -0.0323, 0.0000, 0.0000, 0.0000, 0.0000, 0.0000, 0.0000, -0.2842, -0.3210, 0.7146, -0.5527, -0.0106, 0.9607, 1.2250, 0.0000, 0.0000, 0.0000, 0.0000
2, 0.8900, 89, -0.1964, -0.0504, -0.9952, 0.1859, 0.0049, -0.0093, 0.0000, 0.0000, 0.0000, 0.0000, 0.0000, 0.0000, 0.9948, -0.0266, 0.0968, -0.0188, 0.0028, 0.0010, 0.0153, 0.0000, 0.0000, 0.0000, 0.0000
3, 0.9100, 91, 0.0091, -0.0351, -1.0035, -0.0107, 0.0845, -0.0623, 0.0000, 0.0000, 0.0000, 0.0000, 0.0000, 0.0000, 0.9676, -0.0172, -0.0002, 0.2519, -0.0002, 0.0020, 0.0041, 0.0000, 0.0000, 0.0000, 0.0000
2, 0.9000, 90, -0.1967, -0.0499, -0.9941, -0.0416, 0.0049, -0.0793, 0.0000, 0.0000, 0.0000, 0.0000, 0.0000, 0.0000, 0.9948, -0.0266, 0.0968, -0.0188, 0.0031, 0.0005, 0.0143, 0.0000, 0.0000, 0.0000, 0.0000
3, 0.9200, 92, 0.0089, -0.0333, -0.9996, -0.0816, 0.0502, -0.0453, 0.0000, 0.0000, 0.0000, 0.0000, 0.0000, 0.0000, 0.9676, -0.0172, -0.0002, 0.2519, 0.0001, 0.0002, 0.0002, 0.0000, 0.0000, 0.0000, 0.0000
1, 0.9100, 91, 0.0645, 0.0137, -0.9945, 0.0298, -0.0589, -0.0937, 0.0000, 0.0000, 0.0000, 0.0000, 0.0000, 0.0000, -0.2842, -0.3210, 0.7146, -0.5527, -0.0131, 0.9587, 1.2220, 0.0000, 0.0000, 0.0000, 0.0000
2, 0.9100, 91, -0.1971, -0.0485, -0.9952, -0.0416, -0.0651, 0.0257, 0.0000, 0.0000, 0.0000, 0.0000, 0.0000, 0.0000, 0.9948, -0.0266, 0.0968, -0.0188, 0.0035, -0.0008, 0.0154, 0.0000, 0.0000, 0.0000, 0.0000
3, 0.9300, 93, 0.0086, -0.0361, -1.0015, -0.1349, 0.0849, -0.0110, 0.0000, 0.0000, 0.0000, 0.0000, 0.0000, 0.0000, 0.9676, -0.0172, -0.0002, 0.2519, 0.0004, 0.0030, 0.0021, 0.0000, 0.0000, 0.0000, 0.0000
1, 0.9200, 92, 0.0640, 0.0139, -0.9974, 0.1342, -0.0594, -0.0067, 0.0000, 0.0000, 0.0000, 0.0000, 0.0000, 0.0000, -0.2842, -0.3210, 0.7146, -0.5527, -0.0126, 0.9585, 1.2249, 0.0000, 0.0000, 0.0000, 0.0000
3, 0.9400, 94, 0.0086, -0.0324, -1.0024, -0.0127, 0.0822, 0.0599, 0.0000, 0.0000, 0.0000, 0.0000, 0.0000, 0.0000, 0.9676, -0.0172, -0.0002, 0.2519, 0.0004, -0.0007, 0.0030, 0.0000, 0.0000, 0.0000, 0.0000
2, 0.9200, 92, -0.1974, -0.0512, -0.9945, 0.0109, -0.0826, -0.0793, 0.0000, 0.0000, 0.0000, 0.0000, 0.0000, 0.0000, 0.9948, -0.0266, 0.0968, -0.0188, 0.0038, 0.0019, 0.0147, 0.0000, 0.0000, 0.0000, 0.0000
1, 0.9300, 93, 0.0658, 0.0141, -0.9945, -0.0425, -0.0451, 0.0462, 0.0000, 0.0000, 0.0000, 0.0000, 0.0000, 0.0000, -0.2842, -0.3210, 0.7146, -0.5527, -0.0144, 0.9584, 1.2220, 0.0000, 0.0000, 0.0000, 0.0000
2, 0.9300, 93, -0.1978, -0.0508, -0.9951, 0.0809, -0.0126, -0.1143, 0.0000, 0.0000, 0.0000, 0.0000, 0.0000, 0.0000, 0.9948, -0.0266, 0.0969, -0.0188, 0.0041, 0.0014, 0.0152, 0.0000, 0.0000, 0.0000, 0.0000
2, 0.9400, 94, -0.1972, -0.0498, -0.9949, 0.0109, -0.0651, -0.0268, 0.0000, 0.0000, 0.0000, 0.0000, 0.0000, 0.0000, 0.9948, -0.0266, 0.0969, -0.0188, 0.0035, 0.0005, 0.0151, 0.0000, 0.0000, 0.0000, 0.0000
3, 0.9500, 95, 0.0064, -0.0336, -0.9999, -0.0649, 0.0490, 0.0073, 0.0000, 0.0000, 0.0000, 0.0000, 0.0000, 0.0000, 0.9676, -0.0172, -0.0002, 0.2519, 0.0026, 0.0005, 0.0005, 0.0000, 0.0000, 0.0000, 0.0000
3, 0.9600, 96, 0.0081, -0.0342, -1.0004, 0.0485, -0.0464, 0.1036, 0.0000, 0.0000, 0.0000, 0.0000, 0.0000, 0.0000, 0.9676, -0.0172, 0.0000, 0.2518, 0.0008, 0.0010, 0.0010, 0.0000, 0.0000, 0.0000, 0.0000
1, 0.9400, 94, 0.0630, 0.0133, -0.9955, 0.1347, -0.1453, 0.0112, 0.0000, 0.0000, 0.0000, 0.0000, 0.0000, 0.0000, -0.2842, -0.3210, 0.7146, -0.5527, -0.0117, 0.9591, 1.2230, 0.0000, 0.0000, 0.0000, 0.0000
2, 0.9500, 95, -0.1971, -0.0477, -0.9950, -0.0066, 0.1099, -0.0268, 0.0000, 0.0000, 0.0000, 0.0000, 0.0000, 0.0000, 0.9948, -0.0266, 0.0969, -0.0188, 0.0034, -0.0017, 0.0152, 0.0000, 0.0000, 0.0000, 0.0000
1, 0.9500, 95, 0.0649, 0.0126, -0.9958, 0.0462, 0.0262, -0.0592, 0.0000, 0.0000, 0.0000, 0.0000, 0.0000, 0.0000, -0.2841, -0.3211, 0.7146, -0.5527, -0.0136, 0.9598, 1.2233, 0.0000, 0.0000, 0.0000, 0.0000
3, 0.9700, 97, 0.0086, -0.0342, -1.0013, -0.1362, -0.1324, 0.0701, 0.0000, 0.0000, 0.0000, 0.0000, 0.0000, 0.0000, 0.9676, -0.0172, 0.0000, 0.2518, 0.0001, 0.0008, 0.0019, 0.0000, 0.0000, 0.0000, 0.0000
2, 0.9600, 96, -0.1968, -0.0499, -0.9953, 0.0459, 0.0749, 0.0782, 0.0000, 0.0000, 0.0000, 0.0000, 0.0000, 0.0000, 0.9948, -0.0266, 0.0969, -0.0188, 0.0031, 0.0006, 0.0155, 0.0000, 0.0000, 0.0000, 0.0000
3, 0.9800, 98, 0.0101, -0.0341, -1.0011, 0.3943, 0.0538, 0.0211, 0.0000, 0.0000, 0.0000, 0.0000, 0.0000, 0.0000, 0.9676, -0.0173, 0.0000, 0.2518, -0.0014, 0.0007, 0.0017, 0.0000, 0.0000, 0.0000, 0.0000
1, 0.9600, 96, 0.0628, 0.0114, -0.9965, 0.1004, -0.0059, -0.1466, 0.0000, 0.0000, 0.0000, 0.0000, 0.0000, 0.0000, -0.2841, -0.3210, 0.7146, -0.5527, -0.0116, 0.9610, 1.2240, 0.0000, 0.0000, 0.0000, 0.0000
2, 0.9700, 97, -0.1978, -0.0487, -0.9954, 0.1509, 0.0749, -0.0443, 0.0000, 0.0000, 0.0000, 0.0000, 0.0000, 0.0000, 0.9948, -0.0267, 0.0968, -0.0188, 0.0041, -0.0007, 0.0155, 0.0000, 0.0000, 0.0000, 0.0000
3, 0.9900, 99, 0.0085, -0.0345, -1.0012, 0.0950, -0.0117, -0.0160, 0.0000, 0.0000, 0.0000, 0.0000, 0.0000, 0.0000, 0.9676, -0.0173, 0.0000, 0.2518, 0.0002, 0.0011, 0.0018, 0.0000, 0.0000, 0.0000, 0.0000
1, 0.9700, 97, 0.0630, 0.0122, -0.9969, -0.1659, 0.0053, 0.0289, 0.0000, 0.0000, 0.0000, 0.0000, 0.0000, 0.0000, -0.2841, -0.3211, 0.7146, -0.5527, -0.0119, 0.9603, 1.2244, 0.0000, 0.0000, 0.0000, 0.0000
1, 0.9800, 98, 0.0649, 0.0121, -0.9948, 0.1679, 0.0774, 0.0099, 0.0000, 0.0000, 0.0000, 0.0000, 0.0000, 0.0000, -0.2841, -0.3210, 0.7146, -0.5527, -0.0137, 0.9603, 1.2223, 0.0000, 0.0000, 0.0000, 0.0000
2, 0.9800, 98, -0.1971, -0.0497, -0.9946, -0.0818, -0.0435, 0.0301, 0.0000, 0.0000, 0.0000, 0.0000, 0.0000, 0.0000, 0.9948, -0.0266, 0.0968, -0.0188, 0.0034, 0.0003, 0.0147, 0.0000, 0.0000, 0.0000, 0.0000
2, 0.9900, 99, -0.1958, -0.0504, -0.9949, 0.1055, 0.1006, -0.1580, 0.0000, 0.0000, 0.0000, 0.0000, 0.0000, 0.0000, 0.9948, -0.0266, 0.0968, -0.0188, 0.0022, 0.0011, 0.0150, 0.0000, 0.0000, 0.0000, 0.0000
3, 1.0000, 100, 0.0094, -0.0358, -1.0021, 0.1470, -0.0651, 0.0197, 0.0000, 0.0000, 0.0000, 0.0000, 0.0000, 0.0000, 0.9676, -0.0173, 0.0000, 0.2518, -0.0008, 0.0024, 0.0027, 0.0000, 0.0000, 0.0000, 0.0000
1, 0.9900, 99, 0.0644, 0.0138, -0.9965, 0.1700, -0.0755, -0.0417, 0.0000, 0.0000, 0.0000, 0.0000, 0.0000, 0.0000, -0.2841, -0.3210, 0.7146, -0.5528, -0.0132, 0.9586, 1.2239, 0.0000, 0.0000, 0.0000, 0.0000
2, 1.0000, 100, -0.1967, -0.0504, -0.9949, 0.0005, 0.0306, -0.0180, 0.0000, 0.0000, 0.0000, 0.0000, 0.0000, 0.0000, 0.9948, -0.0266, 0.0968, -0.0188, 0.0031, 0.0011, 0.0150, 0.0000, 0.0000, 0.0000, 0.0000
1, 1.0000, 100, 0.0624, 0.0133, -0.9972, 0.0462, -0.0258, -0.0240, 0.0000, 0.0000, 0.0000, 0.0000, 0.0000, 0.0000, -0.2841, -0.3211, 0.7146, -0.5528, -0.0113, 0.9591, 1.2247, 0.0000, 0.0000, 0.0000, 0.0000
1, 1.0100, 101, 0.0642, 0.0135, -0.9944, 0.1729, 0.0458, 0.0712, 0.0000, 0.0000, 0.0000, 0.0000, 0.0000, 0.0000, -0.2841, -0.3211, 0.7146, -0.5528, -0.0131, 0.9590, 1.2219, 0.0000, 0.0000, 0.0000, 0.0000
2, 1.0100, 101, -0.1948, -0.0476, -0.9955, 0.0530, 0.0131, -0.0005, 0.0000, 0.0000, 0.0000, 0.0000, 0.0000, 0.0000, 0.9948, -0.0266, 0.0968, -0.0188, 0.0012, -0.0017, 0.0157, 0.0000, 0.0000, 0.0000, 0.0000
3, 1.0100, 101, 0.0087, -0.0329, -0.9996, -0.2580, -0.0427, -0.0014, 0.0000, 0.0000, 0.0000, 0.0000, 0.0000, 0.0000, 0.9676, -0.0172, -0.0001, 0.2518, -0.0000, -0.0005, 0.0002, 0.0000, 0.0000, 0.0000, 0.0000
3, 1.0200, 102, 0.0106, -0.0341, -0.9992, 0.1305, 0.0401, -0.0160, 0.0000, 0.0000, 0.0000, 0.0000, 0.0000, 0.0000, 0.9676, -0.0172, -0.0001, 0.2518, -0.0018, 0.0010, -0.0002, 0.0000, 0.0000, 0.0000, 0.0000
2, 1.0200, 102, -0.1981, -0.0522, -0.9954, 0.0530, -0.0569, -0.0005, 0.0000, 0.0000, 0.0000, 0.0000, 0.0000, 0.0000, 0.9948, -0.0266, 0.0968, -0.0188, 0.0045, 0.0029, 0.0155, 0.0000, 0.0000, 0.0000, 0.0000
1, 1.0200, 102, 0.0661, 0.0143, -0.9934, 0.0517, 0.0127, -0.0505, 0.0000, 0.0000, 0.0000, 0.0000, 0.0000, 0.0000, -0.2841, -0.3211, 0.7146, -0.5528, -0.0150, 0.9582, 1.2208, 0.0000, 0.0000, 0.0000, 0.0000
1, 1.0300, 103, 0.0634, 0.0145, -0.9957, 0.0517, 0.0127, -0.0505, 0.0000, 0.0000, 0.0000, 0.0000, 0.0000, 0.0000, -0.2841, -0.3211, 0.7146, -0.5528, -0.0124, 0.9580, 1.2231, 0.0000, 0.0000, 0.0000, 0.0000
3, 1.0300, 103, 0.0090, -0.0337, -1.0014, -0.0281, 0.0594, -0.0176, 0.0000, 0.0000, 0.0000, 0.0000, 0.0000, 0.0000, 0.9676, -0.0172, -0.0001, 0.2518, -0.0002, 0.0005, 0.0020, 0.0000, 0.0000, 0.0000, 0.0000
3, 1.0400, 104, 0.0089, -0.0338, -0.9991, 0.0759, -0.0131, 0.0712, 0.0000, 0.0000, 0.0000, 0.0000, 0.0000, 0.0000, 0.9676, -0.0172, -0.0001, 0.2518, -0.0001, 0.0006, -0.0003, 0.0000, 0.0000, 0.0000, 0.0000
1, 1.0400, 104, 0.0633, 0.0119, -0.9966, -0.0193, 0.0284, -0.0154, 0.0000, 0.0000, 0.0000, 0.0000, 0.0000, 0.0000, -0.2841, -0.3211, 0.7146, -0.5528, -0.0122, 0.9605, 1.2240, 0.0000, 0.0000, 0.0000, 0.0000
2, 1.0300, 103, -0.1960, -0.0508, -0.9969, 0.0705, -0.0394, -0.0880, 0.0000, 0.0000, 0.0000, 0.0000, 0.0000, 0.0000, 0.9948, -0.0267, 0.0969, -0.0188, 0.0024, 0.0014, 0.0171, 0.0000, 0.0000, 0.0000, 0.0000
1, 1.0500, 105, 0.0629, 0.0129, -0.9953, 0.1215, -0.0047, 0.0018, 0.0000, 0.0000, 0.0000, 0.0000, 0.0000, 0.0000, -0.2841, -0.3211, 0.7146, -0.5528, -0.0119, 0.9596, 1.2227, 0.0000, 0.0000, 0.0000, 0.0000
3, 1.0500, 105, 0.0090, -0.0333, -0.9995, 0.0065, -0.0284, 0.0008, 0.0000, 0.0000, 0.0000, 0.0000, 0.0000, 0.0000, 0.9676, -0.0172, -0.0001, 0.2518, -0.0002, 0.0001, 0.0001, 0.0000, 0.0000, 0.0000, 0.0000
2, 1.0400, 104, -0.1974, -0.0485, -0.9958, 0.0530, -0.0044, -0.0880, 0.0000, 0.0000, 0.0000, 0.0000, 0.0000, 0.0000, 0.9948, -0.0267, 0.0969, -0.0188, 0.0037, -0.0010, 0.0160, 0.0000, 0.0000, 0.0000, 0.0000
3, 1.0600, 106, 0.0082, -0.0338, -0.9999, -0.0146, 0.0419, 0.0806, 0.0000, 0.0000, 0.0000, 0.0000, 0.0000, 0.0000, 0.9676, -0.0170, -0.0000, 0.2518, 0.0005, 0.0006, 0.0005, 0.0000, 0.0000, 0.0000, 0.0000
3, 1.0700, 107, 0.0099, -0.0340, -1.0004, 0.0213, 0.0123, -0.1178, 0.0000, 0.0000, 0.0000, 0.0000, 0.0000, 0.0000, 0.9676, -0.0170, -0.0000, 0.2518, -0.0013, 0.0010, 0.0010, 0.0000, 0.0000, 0.0000, 0.0000
2, 1.0500, 105, -0.1968, -0.0509, -0.9951, 0.0880, -0.0394, 0.0345, 0.0000, 0.0000, 0.0000, 0.0000, 0.0000, 0.0000, 0.9948, -0.0267, 0.0969, -0.0188, 0.0030, 0.0013, 0.0153, 0.0000, 0.0000, 0.0000, 0.0000
1, 1.0600, 106, 0.0627, 0.0127, -0.9962, -0.0016, -0.0579, 0.0374, 0.0000, 0.0000, 0.0000, 0.0000, 0.0000, 0.0000, -0.2841, -0.3211, 0.7146, -0.5528, -0.0116, 0.9597, 1.2236, 0.0000, 0.0000, 0.0000, 0.0000
1, 1.0700, 107, 0.0641, 0.0140, -0.9960, 0.0529, -0.0202, -0.1201, 0.0000, 0.0000, 0.0000, 0.0000, 0.0000, 0.0000, -0.2841, -0.3211, 0.7146, -0.5528, -0.0131, 0.9585, 1.2234, 0.0000, 0.0000, 0.0000, 0.0000
1, 1.0800, 108, 0.0650, 0.0137, -0.9942, 0.0348, -0.0210, -0.0852, 0.0000, 0.0000, 0.0000, 0.0000, 0.0000, 0.0000, -0.2841, -0.3210, 0.7146, -0.5528, -0.0140, 0.9588, 1.2215, 0.0000, 0.0000, 0.0000, 0.0000
3, 1.0800, 108, 0.0091, -0.0342, -1.0016, -0.0506, -0.0404, -0.0482, 0.0000, 0.0000, 0.0000, 0.0000, 0.0000, 0.0000, 0.9676, -0.0170, -0.0000, 0.2518, -0.0005, 0.0012, 0.0022, 0.0000, 0.0000, 0.0000, 0.0000
2, 1.0600, 106, -0.1988, -0.0497, -0.9949, -0.1745, 0.0131, 0.0170, 0.0000, 0.0000, 0.0000, 0.0000, 0.0000, 0.0000, 0.9948, -0.0267, 0.0969, -0.0188, 0.0051, 0.0002, 0.0151, 0.0000, 0.0000, 0.0000, 0.0000
3, 1.0900, 109, 0.0105, -0.0341, -1.0005, 0.1065, -0.0438, 0.0405, 0.0000, 0.0000, 0.0000, 0.0000, 0.0000, 0.0000, 0.9676, -0.0170, 0.0000, 0.2518, -0.0020, 0.0011, 0.0011, 0.0000, 0.0000, 0.0000, 0.0000
2, 1.0700, 107, -0.1960, -0.0504, -0.9951, -0.0695, -0.0744, 0.0170, 0.0000, 0.0000, 0.0000, 0.0000, 0.0000, 0.0000, 0.9948, -0.0267, 0.0969, -0.0188, 0.0022, 0.0008, 0.0153, 0.0000, 0.0000, 0.0000, 0.0000
2, 1.0800, 108, -0.1967, -0.0485, -0.9949, -0.0902, -0.0049, -0.0841, 0.0000, 0.0000, 0.0000, 0.0000, 0.0000, 0.0000, 0.9948, -0.0266, 0.0968, -0.0188, 0.0030, -0.0010, 0.0151, 0.0000, 0.0000, 0.0000, 0.0000
1, 1.0900, 109, 0.0639, 0.0132, -0.9963, 0.0350, 0.0138, -0.1203, 0.0000, 0.0000, 0.0000, 0.0000, 0.0000, 0.0000, -0.2841, -0.3210, 0.7146, -0.5528, -0.0129, 0.9593, 1.2237, 0.0000, 0.0000, 0.0000, 0.0000
3, 1.1000, 110, 0.0081, -0.0325, -1.0027, -0.0305, 0.0487, -0.1709, 0.0000, 0.0000, 0.0000, 0.0000, 0.0000, 0.0000, 0.9676, -0.0170, -0.0000, 0.2519, 0.0005, -0.0005, 0.0033, 0.0000, 0.0000, 0.0000, 0.0000
1, 1.1000, 110, 0.0610, 0.0126, -0.9950, 0.0696, -0.0213, -0.0503, 0.0000, 0.0000, 0.0000, 0.0000, 0.0000, 0.0000, -0.2840, -0.3211, 0.7146, -0.5528, -0.0099, 0.9598, 1.2224, 0.0000, 0.0000, 0.0000, 0.0000
3, 1.1100, 111, 0.0099, -0.0330, -1.0001, 0.1088, -0.0586, -0.0991, 0.0000, 0.0000, 0.0000, 0.0000, 0.0000, 0.0000, 0.9676, -0.0170, -0.0000, 0.2519, -0.0013, 0.0001, 0.0007, 0.0000, 0.0000, 0.0000, 0.0000
2, 1.0900, 109, -0.1962, -0.0499, -0.9951, 0.0924, -0.0241, -0.0547, 0.0000, 0.0000, 0.0000, 0.0000, 0.0000, 0.0000, 0.9948, -0.0267, 0.0968, -0.0188, 0.0026, 0.0005, 0.0153, 0.0000, 0.0000, 0.0000, 0.0000
2, 1.1000, 110, -0.1971, -0.0514, -0.9951, 0.0399, 0.0984, 0.0503, 0.0000, 0.0000, 0.0000, 0.0000, 0.0000, 0.0000, 0.9948, -0.0267, 0.0968, -0.0188, 0.0034, 0.0020, 0.0152, 0.0000, 0.0000, 0.0000, 0.0000
3, 1.1200, 112, 0.0085, -0.0336, -1.0014, 0.2290, -0.0462, 0.0940, 0.0000, 0.0000, 0.0000, 0.0000, 0.0000, 0.0000, 0.9676, -0.0170, -0.0000, 0.2519, 0.0001, 0.0007, 0.0020, 0.0000, 0.0000, 0.0000, 0.0000
1, 1.1100, 111, 0.0662, 0.0147, -0.9945, -0.0616, -0.0627, 0.0251, 0.0000, 0.0000, 0.0000, 0.0000, 0.0000, 0.0000, -0.2840, -0.3211, 0.7146, -0.5528, -0.0152, 0.9577, 1.2220, 0.0000, 0.0000, 0.0000, 0.0000
3, 1.1300, 113, 0.0067, -0.0345, -0.9997, -0.0337, 0.0625, 0.0211, 0.0000, 0.0000, 0.0000, 0.0000, 0.0000, 0.0000, 0.9676, -0.0170, -0.0000, 0.2519, 0.0019, 0.0016, 0.0003, 0.0000, 0.0000, 0.0000, 0.0000
2, 1.1100, 111, -0.1951, -0.0500, -0.9949, 0.0574, 0.0109, -0.1072, 0.0000, 0.0000, 0.0000, 0.0000, 0.0000, 0.0000, 0.9948, -0.0267, 0.0968, -0.0188, 0.0015, 0.0006, 0.0150, 0.0000, 0.0000, 0.0000, 0.0000
1, 1.1200, 112, 0.0623, 0.0133, -0.9959, -0.1352, -0.0833, 0.0969, 0.0000, 0.0000, 0.0000, 0.0000, 0.0000, 0.0000, -0.2840, -0.3211, 0.7146, -0.5528, -0.0114, 0.9592, 1.2235, 0.0000, 0.0000, 0.0000, 0.0000
2, 1.1200, 112, -0.1982, -0.0504, -0.9954, -0.1176, -0.0241, -0.0547, 0.0000, 0.0000, 0.0000, 0.0000, 0.0000, 0.0000, 0.9948, -0.0267, 0.0968, -0.0188, 0.0046, 0.0010, 0.0155, 0.0000, 0.0000, 0.0000, 0.0000
2, 1.1300, 113, -0.1965, -0.0502, -0.9949, 0.0574, 0.0284, -0.0547, 0.0000, 0.0000, 0.0000, 0.0000, 0.0000, 0.0000, 0.9948, -0.0267, 0.0968, -0.0188, 0.0029, 0.0008, 0.0150, 0.0000, 0.0000, 0.0000, 0.0000
2, 1.1400, 114, -0.1968, -0.0490, -0.9943, -0.0301, -0.1291, 0.0678, 0.0000, 0.0000, 0.0000, 0.0000, 0.0000, 0.0000, 0.9948, -0.0267, 0.0968, -0.0188, 0.0032, -0.0004, 0.0145, 0.0000, 0.0000, 0.0000, 0.0000
3, 1.1400, 114, 0.0088, -0.0351, -1.0026, -0.0864, -0.1443, -0.0478, 0.0000, 0.0000, 0.0000, 0.0000, 0.0000, 0.0000, 0.9676, -0.0170, -0.0000, 0.2519, -0.0003, 0.0022, 0.0031, 0.0000, 0.0000, 0.0000, 0.0000
1, 1.1300, 113, 0.0618, 0.0128, -0.9945, -0.0821, -0.0650, 0.0617, 0.0000, 0.0000, 0.0000, 0.0000, 0.0000, 0.0000, -0.2840, -0.3211, 0.7146, -0.5528, -0.0109, 0.9597, 1.2221, 0.0000, 0.0000, 0.0000, 0.0000
3, 1.1500, 115, 0.0087, -0.0321, -1.0025, 0.1070, -0.0087, 0.0228, 0.0000, 0.0000, 0.0000, 0.0000, 0.0000, 0.0000, 0.9676, -0.0170, -0.0000, 0.2519, -0.0002, -0.0008, 0.0031, 0.0000, 0.0000, 0.0000, 0.0000
3, 1.1600, 116, 0.0089, -0.0342, -1.0006, 0.0871, -0.1113, -0.0438, 0.0000, 0.0000, 0.0000, 0.0000, 0.0000, 0.0000, 0.9676, -0.0171, -0.0000, 0.2519, -0.0003, 0.0013, 0.0012, 0.0000, 0.0000, 0.0000, 0.0000
3, 1.1700, 117, 0.0089, -0.0341, -1.0002, -0.0089, 0.0818, -0.0378, 0.0000, 0.0000, 0.0000, 0.0000, 0.0000, 0.0000, 0.9676, -0.0171, -0.0000, 0.2519, -0.0002, 0.0010, 0.0008, 0.0000, 0.0000, 0.0000, 0.0000
1, 1.1400, 114, 0.0648, 0.0125, -0.9944, -0.0804, -0.0279, -0.0956, 0.0000, 0.0000, 0.0000, 0.0000, 0.0000, 0.0000, -0.2840, -0.3211, 0.7146, -0.5528, -0.0139, 0.9599, 1.2220, 0.0000, 0.0000, 0.0000, 0.0000
1, 1.1500, 115, 0.0637, 0.0129, -0.9956, -0.0644, -0.0820, 0.0618, 0.0000, 0.0000, 0.0000, 0.0000, 0.0000, 0.0000, -0.2839, -0.3212, 0.7146, -0.5528, -0.0129, 0.9595, 1.2232, 0.0000, 0.0000, 0.0000, 0.0000
1, 1.1600, 116, 0.0640, 0.0119, -0.9976, 0.0415, -0.0977, 0.0440, 0.0000, 0.0000, 0.0000, 0.0000, 0.0000, 0.0000, -0.2839, -0.3212, 0.7146, -0.5528, -0.0133, 0.9606, 1.2252, 0.0000, 0.0000, 0.0000, 0.0000
1, 1.1700, 117, 0.0647, 0.0132, -0.9959, -0.1179, 0.0030, 0.0615, 0.0000, 0.0000, 0.0000, 0.0000, 0.0000, 0.0000, -0.2839, -0.3212, 0.7146, -0.5528, -0.0140, 0.9592, 1.2235, 0.0000, 0.0000, 0.0000, 0.0000
2, 1.1500, 115, -0.1954, -0.0491, -0.9949, 0.0049, -0.0241, -0.0372, 0.0000, 0.0000, 0.0000, 0.0000, 0.0000, 0.0000, 0.9948, -0.0267, 0.0968, -0.0188, 0.0018, -0.0004, 0.0151, 0.0000, 0.0000, 0.0000, 0.0000
3, 1.1800, 118, 0.0097, -0.0330, -1.0006, 0.0777, 0.0099, 0.0334, 0.0000, 0.0000, 0.0000, 0.0000, 0.0000, 0.0000, 0.9676, -0.0171, -0.0000, 0.2519, -0.0010, -0.0002, 0.0012, 0.0000, 0.0000, 0.0000, 0.0000
1, 1.1800, 118, 0.0644, 0.0150, -0.9959, 0.0420, -0.0450, -0.0261, 0.0000, 0.0000, 0.0000, 0.0000, 0.0000, 0.0000, -0.2839, -0.3212, 0.7146, -0.5528, -0.0136, 0.9575, 1.2235, 0.0000, 0.0000, 0.0000, 0.0000
2, 1.1600, 116, -0.1975, -0.0508, -0.9944, 0.0049, 0.0809, 0.0153, 0.0000, 0.0000, 0.0000, 0.0000, 0.0000, 0.0000, 0.9948, -0.0267, 0.0968, -0.0188, 0.0039, 0.0013, 0.0146, 0.0000, 0.0000, 0.0000, 0.0000
2, 1.1700, 117, -0.1978, -0.0480, -0.9959, -0.0651, -0.0241, 0.0153, 0.0000, 0.0000, 0.0000, 0.0000, 0.0000, 0.0000, 0.9948, -0.0267, 0.0968, -0.0188, 0.0041, -0.0015, 0.0161, 0.0000, 0.0000, 0.0000, 0.0000
3, 1.1900, 119, 0.0071, -0.0343, -1.0011, -0.0275, 0.0636, 0.0146, 0.0000, 0.0000, 0.0000, 0.0000, 0.0000, 0.0000, 0.9676, -0.0171, -0.0000, 0.2519, 0.0016, 0.0012, 0.0017, 0.0000, 0.0000, 0.0000, 0.0000
1, 1.1900, 119, 0.0653, 0.0141, -0.9931, 0.0051, -0.0132, 0.0786, 0.0000, 0.0000, 0.0000, 0.0000, 0.0000, 0.0000, -0.2839, -0.3212, 0.7146, -0.5528, -0.0146, 0.9583, 1.2207, 0.0000, 0.0000, 0.0000, 0.0000
2, 1.1800, 118, -0.1954, -0.0489, -0.9951, -0.0476, -0.0066, 0.1028, 0.0000, 0.0000, 0.0000, 0.0000, 0.0000, 0.0000, 0.9948, -0.0266, 0.0968, -0.0188, 0.0018, -0.0005, 0.0152, 0.0000, 0.0000, 0.0000, 0.0000
3, 1.2000, 120, 0.0082, -0.0312, -1.0016, -0.0966, -0.0032, -0.0903, 0.0000, 0.0000, 0.0000, 0.0000, 0.0000, 0.0000, 0.9676, -0.0171, -0.0000, 0.2519, 0.0005, -0.0019, 0.0022, 0.0000, 0.0000, 0.0000, 0.0000
2, 1.1900, 119, -0.1957, -0.0496, -0.9935, -0.0640, -0.0705, 0.0558, 0.0000, 0.0000, 0.0000, 0.0000, 0.0000, 0.0000, 0.9948, -0.0266, 0.0968, -0.0188, 0.0021, 0.0003, 0.0137, 0.0000, 0.0000, 0.0000, 0.0000
2, 1.2000, 120, -0.1973, -0.0493, -0.9947, 0.1110, 0.0170, 0.0383, 0.0000, 0.0000, 0.0000, 0.0000, 0.0000, 0.0000, 0.9948, -0.0266, 0.0968, -0.0188, 0.0037, -0.0000, 0.0148, 0.0000, 0.0000, 0.0000, 0.0000
3, 1.2100, 121, 0.0096, -0.0315, -1.0014, 0.0081, 0.0117, -0.0197, 0.0000, 0.0000, 0.0000, 0.0000, 0.0000, 0.0000, 0.9676, -0.0171, -0.0000, 0.2519, -0.0010, -0.0015, 0.0020, 0.0000, 0.0000, 0.0000, 0.0000
1, 1.2000, 120, 0.0649, 0.0110, -0.9981, -0.0290, 0.0226, -0.0262, 0.0000, 0.0000, 0.0000, 0.0000, 0.0000, 0.0000, -0.2840, -0.3211, 0.7146, -0.5528, -0.0141, 0.9615, 1.2256, 0.0000, 0.0000, 0.0000, 0.0000
1, 1.2100, 121, 0.0645, 0.0134, -0.9955, 0.0775, -0.1350, -0.0574, 0.0000, 0.0000, 0.0000, 0.0000, 0.0000, 0.0000, -0.2840, -0.3211, 0.7146, -0.5528, -0.0137, 0.9591, 1.2230, 0.0000, 0.0000, 0.0000, 0.0000
3, 1.2200, 122, 0.0095, -0.0353, -1.0021, 0.0258, -0.0404, -0.0366, 0.0000, 0.0000, 0.0000, 0.0000, 0.0000, 0.0000, 0.9676, -0.0171, -0.0000, 0.2519, -0.0009, 0.0023, 0.0026, 0.0000, 0.0000, 0.0000, 0.0000
2, 1.2100, 121, -0.1964, -0.0512, -0.9952, -0.1865, -0.0005, 0.0558, 0.0000, 0.0000, 0.0000, 0.0000, 0.0000, 0.0000, 0.9948, -0.0266, 0.0968, -0.0188, 0.0028, 0.0020, 0.0153, 0.0000, 0.0000, 0.0000, 0.0000
3, 1.2300, 123, 0.0091, -0.0338, -1.0021, -0.1330, -0.0041, -0.0208, 0.0000, 0.0000, 0.0000, 0.0000, 0.0000, 0.0000, 0.9676, -0.0170, -0.0000, 0.2519, -0.0004, 0.0008, 0.0027, 0.0000, 0.0000, 0.0000, 0.0000
2, 1.2200, 122, -0.1976, -0.0494, -0.9945, -0.2215, 0.0170, 0.1608, 0.0000, 0.0000, 0.0000, 0.0000, 0.0000, 0.0000, 0.9948, -0.0266, 0.0968, -0.0188, 0.0040, 0.0002, 0.0147, 0.0000, 0.0000, 0.0000, 0.0000
1, 1.2200, 122, 0.0634, 0.0109, -0.9967, -0.1025, 0.0782, 0.0502, 0.0000, 0.0000, 0.0000, 0.0000, 0.0000, 0.0000, -0.2840, -0.3211, 0.7146, -0.5528, -0.0127, 0.9615, 1.2241, 0.0000, 0.0000, 0.0000, 0.0000
3, 1.2400, 124, 0.0104, -0.0335, -0.9986, 0.1475, -0.0782, 0.0520, 0.0000, 0.0000, 0.0000, 0.0000, 0.0000, 0.0000, 0.9676, -0.0171, -0.0000, 0.2519, -0.0018, 0.0006, -0.0008, 0.0000, 0.0000, 0.0000, 0.0000
2, 1.2300, 123, -0.1974, -0.0485, -0.9953, -0.1690, -0.0005, 0.0208, 0.0000, 0.0000, 0.0000, 0.0000, 0.0000, 0.0000, 0.9948, -0.0265, 0.0968, -0.0188, 0.0038, -0.0007, 0.0155, 0.0000, 0.0000, 0.0000, 0.0000
1, 1.2300, 123, 0.0644, 0.0125, -0.9954, -0.0828, -0.0571, -0.0191, 0.0000, 0.0000, 0.0000, 0.0000, 0.0000, 0.0000, -0.2840, -0.3211, 0.7146, -0.5528, -0.0136, 0.9599, 1.2229, 0.0000, 0.0000, 0.0000, 0.0000
3, 1.2500, 125, 0.0079, -0.0335, -1.0002, 0.1309, -0.0423, -0.0007, 0.0000, 0.0000, 0.0000, 0.0000, 0.0000, 0.0000, 0.9676, -0.0171, -0.0000, 0.2519, 0.0007, 0.0005, 0.0008, 0.0000, 0.0000, 0.0000, 0.0000
2, 1.2400, 124, -0.1964, -0.0493, -0.9944, 0.0760, 0.0520, -0.0142, 0.0000, 0.0000, 0.0000, 0.0000, 0.0000, 0.0000, 0.9948, -0.0265, 0.0968, -0.0188, 0.0028, 0.0002, 0.0146, 0.0000, 0.0000, 0.0000, 0.0000
3, 1.2600, 126, 0.0094, -0.0329, -0.9995, -0.1173, -0.0410, 0.0844, 0.0000, 0.0000, 0.0000, 0.0000, 0.0000, 0.0000, 0.9676, -0.0171, -0.0000, 0.2519, -0.0007, -0.0001, 0.0001, 0.0000, 0.0000, 0.0000, 0.0000
2, 1.2500, 125, -0.1993, -0.0491, -0.9954, -0.0990, -0.0530, -0.0142, 0.0000, 0.0000, 0.0000, 0.0000, 0.0000, 0.0000, 0.9948, -0.0265, 0.0968, -0.0188, 0.0057, 0.0000, 0.0155, 0.0000, 0.0000, 0.0000, 0.0000
3, 1.2700, 127, 0.0092, -0.0364, -1.0004, -0.0319, -0.0452, 0.0824, 0.0000, 0.0000, 0.0000, 0.0000, 0.0000, 0.0000, 0.9676, -0.0171, -0.0000, 0.2519, -0.0005, 0.0032, 0.0009, 0.0000, 0.0000, 0.0000, 0.0000
1, 1.2400, 124, 0.0640, 0.0139, -0.9946, -0.1198, 0.1477, -0.0200, 0.0000, 0.0000, 0.0000, 0.0000, 0.0000, 0.0000, -0.2840, -0.3211, 0.7146, -0.5528, -0.0132, 0.9586, 1.2221, 0.0000, 0.0000, 0.0000, 0.0000
2, 1.2600, 126, -0.1957, -0.0506, -0.9952, -0.1865, -0.0355, 0.0733, 0.0000, 0.0000, 0.0000, 0.0000, 0.0000, 0.0000, 0.9948, -0.0265, 0.0968, -0.0188, 0.0021, 0.0015, 0.0154, 0.0000, 0.0000, 0.0000, 0.0000
1, 1.2500, 125, 0.0644, 0.0136, -0.9944, -0.0679, -0.0089, 0.1553, 0.0000, 0.0000, 0.0000, 0.0000, 0.0000, 0.0000, -0.2840, -0.3212, 0.7146, -0.5528, -0.0136, 0.9588, 1.2219, 0.0000, 0.0000, 0.0000, 0.0000
3, 1.2800, 128, 0.0085, -0.0329, -1.0029, 0.0233, 0.0086, -0.0397, 0.0000, 0.0000, 0.0000, 0.0000, 0.0000, 0.0000, 0.9676, -0.0171, -0.0000, 0.2519, 0.0002, -0.0002, 0.0035, 0.0000, 0.0000, 0.0000, 0.0000
3, 1.2900, 129, 0.0077, -0.0323, -1.0009, 0.0762, 0.0080, -0.0392, 0.0000, 0.0000, 0.0000, 0.0000, 0.0000, 0.0000, 0.9676, -0.0171, -0.0000, 0.2519, 0.0010, -0.0008, 0.0015, 0.0000, 0.0000, 0.0000, 0.0000
2, 1.2700, 127, -0.1969, -0.0511, -0.9951, -0.0115, 0.1395, -0.0492, 0.0000, 0.0000, 0.0000, 0.0000, 0.0000, 0.0000, 0.9948, -0.0265, 0.0968, -0.0188, 0.0033, 0.0021, 0.0153, 0.0000, 0.0000, 0.0000, 0.0000
1, 1.2600, 126, 0.0628, 0.0135, -0.9946, 0.0036, 0.0454, 0.0325, 0.0000, 0.0000, 0.0000, 0.0000, 0.0000, 0.0000, -0.2840, -0.3212, 0.7146, -0.5528, -0.0120, 0.9590, 1.2221, 0.0000, 0.0000, 0.0000, 0.0000
1, 1.2700, 127, 0.0634, 0.0125, -0.9961, -0.0854, 0.0603, 0.1026, 0.0000, 0.0000, 0.0000, 0.0000, 0.0000, 0.0000, -0.2840, -0.3212, 0.7146, -0.5528, -0.0126, 0.9599, 1.2236, 0.0000, 0.0000, 0.0000, 0.0000
2, 1.2800, 128, -0.1993, -0.0505, -0.9957, -0.1165, -0.0005, 0.0558, 0.0000, 0.0000, 0.0000, 0.0000, 0.0000, 0.0000, 0.9948, -0.0266, 0.0969, -0.0188, 0.0056, 0.0015, 0.0158, 0.0000, 0.0000, 0.0000, 0.0000
3, 1.3000, 130, 0.0072, -0.0337, -1.0007, -0.0645, 0.0274, -0.0581, 0.0000, 0.0000, 0.0000, 0.0000, 0.0000, 0.0000, 0.9676, -0.0171, -0.0000, 0.2519, 0.0015, 0.0005, 0.0013, 0.0000, 0.0000, 0.0000, 0.0000
3, 1.3100, 131, 0.0088, -0.0332, -1.0019, 0.1985, -0.0810, -0.0026, 0.0000, 0.0000, 0.0000, 0.0000, 0.0000, 0.0000, 0.9676, -0.0173, -0.0001, 0.2519, -0.0001, -0.0000, 0.0025, 0.0000, 0.0000, 0.0000, 0.0000
1, 1.2800, 128, 0.0639, 0.0119, -0.9960, -0.0131, 0.0465, -0.0373, 0.0000, 0.0000, 0.0000, 0.0000, 0.0000, 0.0000, -0.2840, -0.3212, 0.7146, -0.5528, -0.0132, 0.9605, 1.2235, 0.0000, 0.0000, 0.0000, 0.0000
2, 1.2900, 129, -0.1969, -0.0511, -0.9944, -0.0052, -0.0051, 0.0659, 0.0000, 0.0000, 0.0000, 0.0000, 0.0000, 0.0000, 0.9948, -0.0266, 0.0969, -0.0188, 0.0031, 0.0019, 0.0146, 0.0000, 0.0000, 0.0000, 0.0000
1, 1.2900, 129, 0.0626, 0.0129, -0.9955, 0.0595, -0.1573, -0.0714, 0.0000, 0.0000, 0.0000, 0.0000, 0.0000, 0.0000, -0.2840, -0.3212, 0.7146, -0.5528, -0.0119, 0.9596, 1.2230, 0.0000, 0.0000, 0.0000, 0.0000
1, 1.3000, 130, 0.0638, 0.0130, -0.9950, -0.1021, 0.0614, 0.0328, 0.0000, 0.0000, 0.0000, 0.0000, 0.0000, 0.0000, -0.2839, -0.3212, 0.7145, -0.5528, -0.0131, 0.9594, 1.2225, 0.0000, 0.0000, 0.0000, 0.0000
1, 1.3100, 131, 0.0641, 0.0131, -0.9955, 0.0954, -0.0220, 0.0129, 0.0000, 0.0000, 0.0000, 0.0000, 0.0000, 0.0000, -0.2840, -0.3212, 0.7145, -0.5528, -0.0134, 0.9593, 1.2230, 0.0000, 0.0000, 0.0000, 0.0000
3, 1.3200, 132, 0.0087, -0.0352, -1.0004, -0.1002, 0.1138, -0.0066, 0.0000, 0.0000, 0.0000, 0.0000, 0.0000, 0.0000, 0.9676, -0.0173, -0.0001, 0.2519, 0.0001, 0.0018, 0.0010, 0.0000, 0.0000, 0.0000, 0.0000
2, 1.3000, 130, -0.1980, -0.0499, -0.9948, -0.0148, -0.0591, -0.0416, 0.0000, 0.0000, 0.0000, 0.0000, 0.0000, 0.0000, 0.9948, -0.0266, 0.0969, -0.0188, 0.0042, 0.0006, 0.0150, 0.0000, 0.0000, 0.0000, 0.0000
3, 1.3300, 133, 0.0080, -0.0324, -1.0019, 0.1458, 0.0062, 0.0138, 0.0000, 0.0000, 0.0000, 0.0000, 0.0000, 0.0000, 0.9676, -0.0173, -0.0001, 0.2519, 0.0009, -0.0010, 0.0025, 0.0000, 0.0000, 0.0000, 0.0000
1, 1.3200, 132, 0.0649, 0.0128, -0.9957, -0.0378, 0.0257, 0.0939, 0.0000, 0.0000, 0.0000, 0.0000, 0.0000, 0.0000, -0.2840, -0.3212, 0.7145, -0.5528, -0.0143, 0.9596, 1.2232, 0.0000, 0.0000, 0.0000, 0.0000
2, 1.3100, 131, -0.1987, -0.0497, -0.9947, 0.0202, 0.0109, -0.0241, 0.0000, 0.0000, 0.0000, 0.0000, 0.0000, 0.0000, 0.9948, -0.0266, 0.0969, -0.0188, 0.0049, 0.0005, 0.0149, 0.0000, 0.0000, 0.0000, 0.0000
1, 1.3300, 133, 0.0642, 0.0126, -0.9948, -0.0181, 0.0288, -0.0634, 0.0000, 0.0000, 0.0000, 0.0000, 0.0000, 0.0000, -0.2840, -0.3212, 0.7145, -0.5528, -0.0135, 0.9599, 1.2223, 0.0000, 0.0000, 0.0000, 0.0000
3, 1.3400, 134, 0.0082, -0.0317, -1.0018, 0.1630, 0.0402, 0.0486, 0.0000, 0.0000, 0.0000, 0.0000, 0.0000, 0.0000, 0.9676, -0.0173, -0.0001, 0.2519, 0.0006, -0.0017, 0.0024, 0.0000, 0.0000, 0.0000, 0.0000
2, 1.3200, 132, -0.1971, -0.0495, -0.9951, -0.0498, 0.0984, -0.0416, 0.0000, 0.0000, 0.0000, 0.0000, 0.0000, 0.0000, 0.9948, -0.0266, 0.0969, -0.0188, 0.0032, 0.0003, 0.0153, 0.0000, 0.0000, 0.0000, 0.0000
3, 1.3500, 135, 0.0088, -0.0328, -1.0007, -0.0297, 0.1130, -0.0059, 0.0000, 0.0000, 0.0000, 0.0000, 0.0000, 0.0000, 0.9676, -0.0173, -0.0001, 0.2519, 0.0000, -0.0007, 0.0013, 0.0000, 0.0000, 0.0000, 0.0000
1, 1.3400, 134, 0.0621, 0.0130, -0.9954, 0.0163, -0.0412, 0.0416, 0.0000, 0.0000, 0.0000, 0.0000, 0.0000, 0.0000, -0.2840, -0.3212, 0.7145, -0.5528, -0.0114, 0.9595, 1.2229, 0.0000, 0.0000, 0.0000, 0.0000
2, 1.3300, 133, -0.1952, -0.0495, -0.9955, 0.0552, 0.0284, 0.0459, 0.0000, 0.0000, 0.0000, 0.0000, 0.0000, 0.0000, 0.9948, -0.0266, 0.0968, -0.0188, 0.0014, 0.0002, 0.0157, 0.0000, 0.0000, 0.0000, 0.0000
1, 1.3500, 135, 0.0655, 0.0136, -0.9956, -0.0712, 0.0450, -0.0458, 0.0000, 0.0000, 0.0000, 0.0000, 0.0000, 0.0000, -0.2840, -0.3211, 0.7146, -0.5528, -0.0147, 0.9589, 1.2231, 0.0000, 0.0000, 0.0000, 0.0000
3, 1.3600, 136, 0.0093, -0.0332, -1.0013, -0.1357, -0.0072, -0.0235, 0.0000, 0.0000, 0.0000, 0.0000, 0.0000, 0.0000, 0.9676, -0.0173, 0.0000, 0.2519, -0.0005, -0.0002, 0.0019, 0.0000, 0.0000, 0.0000, 0.0000
3, 1.3700, 137, 0.0082, -0.0332, -1.0029, 0.1739, 0.0009, 0.0202, 0.0000, 0.0000, 0.0000, 0.0000, 0.0000, 0.0000, 0.9676, -0.0173, 0.0000, 0.2519, 0.0005, -0.0003, 0.0035, 0.0000, 0.0000, 0.0000, 0.0000
1, 1.3600, 136, 0.0621, 0.0132, -0.9972, 0.0342, 0.0287, -0.0286, 0.0000, 0.0000, 0.0000, 0.0000, 0.0000, 0.0000, -0.2840, -0.3211, 0.7146, -0.5528, -0.0112, 0.9592, 1.2247, 0.0000, 0.0000, 0.0000, 0.0000
3, 1.3800, 138, 0.0100, -0.0337, -1.0017, 0.0830, -0.0174, 0.0391, 0.0000, 0.0000, 0.0000, 0.0000, 0.0000, 0.0000, 0.9676, -0.0173, 0.0000, 0.2519, -0.0013, 0.0002, 0.0023, 0.0000, 0.0000, 0.0000, 0.0000
1, 1.3700, 137, 0.0646, 0.0144, -0.9941, 0.1031, 0.0620, 0.0583, 0.0000, 0.0000, 0.0000, 0.0000, 0.0000, 0.0000, -0.2840, -0.3211, 0.7146, -0.5528, -0.0137, 0.9581, 1.2216, 0.0000, 0.0000, 0.0000, 0.0000
3, 1.3900, 139, 0.0092, -0.0329, -1.0033, -0.0561, 0.0728, -0.0501, 0.0000, 0.0000, 0.0000, 0.0000, 0.0000, 0.0000, 0.9676, -0.0173, 0.0000, 0.2519, -0.0005, -0.0007, 0.0039, 0.0000, 0.0000, 0.0000, 0.0000
1, 1.3800, 138, 0.0636, 0.0109, -0.9966, -0.1600, 0.0602, 0.0068, 0.0000, 0.0000, 0.0000, 0.0000, 0.0000, 0.0000, -0.2840, -0.3211, 0.7146, -0.5528, -0.0127, 0.9616, 1.2241, 0.0000, 0.0000, 0.0000, 0.0000
1, 1.3900, 139, 0.0648, 0.0133, -0.9945, 0.0686, 0.0106, 0.0412, 0.0000, 0.0000, 0.0000, 0.0000, 0.0000, 0.0000, -0.2840, -0.3211, 0.7146, -0.5528, -0.0139, 0.9591, 1.2220, 0.0000, 0.0000, 0.0000, 0.0000
2, 1.3400, 134, -0.1963, -0.0495, -0.9950, -0.0498, -0.0241, -0.0241, 0.0000, 0.0000, 0.0000, 0.0000, 0.0000, 0.0000, 0.9948, -0.0266, 0.0968, -0.0188, 0.0026, 0.0002, 0.0152, 0.0000, 0.0000, 0.0000, 0.0000
2, 1.3500, 135, -0.1965, -0.0504, -0.9935, 0.1252, 0.0459, 0.0634, 0.0000, 0.0000, 0.0000, 0.0000, 0.0000, 0.0000, 0.9948, -0.0266, 0.0968, -0.0188, 0.0029, 0.0011, 0.0136, 0.0000, 0.0000, 0.0000, 0.0000
3, 1.4000, 140, 0.0091, -0.0350, -1.0032, -0.1106, -0.1360, -0.0142, 0.0000, 0.0000, 0.0000, 0.0000, 0.0000, 0.0000, 0.9676, -0.0173, 0.0000, 0.2519, -0.0004, 0.0014, 0.0038, 0.0000, 0.0000, 0.0000, 0.0000
3, 1.4100, 141, 0.0074, -0.0332, -1.0011, 0.0125, 0.0352, 0.0555, 0.0000, 0.0000, 0.0000, 0.0000, 0.0000, 0.0000, 0.9676, -0.0171, -0.0000, 0.2519, 0.0013, -0.0002, 0.0017, 0.0000, 0.0000, 0.0000, 0.0000
2, 1.3600, 136, -0.1970, -0.0492, -0.9943, -0.0848, 0.0284, 0.1159, 0.0000, 0.0000, 0.0000, 0.0000, 0.0000, 0.0000, 0.9948, -0.0266, 0.0968, -0.0188, 0.0033, -0.0001, 0.0144, 0.0000, 0.0000, 0.0000, 0.0000
1, 1.4000, 140, 0.0665, 0.0139, -0.9946, -0.1089, 0.0065, 0.1641, 0.0000, 0.0000, 0.0000, 0.0000, 0.0000, 0.0000, -0.2842, -0.3210, 0.7146, -0.5527, -0.0155, 0.9586, 1.2221, 0.0000, 0.0000, 0.0000, 0.0000
3, 1.4200, 142, 0.0090, -0.0350, -1.0021, 0.1712, -0.0011, 0.0397, 0.0000, 0.0000, 0.0000, 0.0000, 0.0000, 0.0000, 0.9676, -0.0172, -0.0000, 0.2519, -0.0003, 0.0018, 0.0027, 0.0000, 0.0000, 0.0000, 0.0000
1, 1.4100, 141, 0.0628, 0.0143, -0.9942, -0.0178, 0.0465, -0.0984, 0.0000, 0.0000, 0.0000, 0.0000, 0.0000, 0.0000, -0.2842, -0.3210, 0.7146, -0.5527, -0.0115, 0.9581, 1.2217, 0.0000, 0.0000, 0.0000, 0.0000
2, 1.3700, 137, -0.1978, -0.0466, -0.9941, -0.0848, -0.0941, 0.0634, 0.0000, 0.0000, 0.0000, 0.0000, 0.0000, 0.0000, 0.9948, -0.0266, 0.0968, -0.0188, 0.0041, -0.0027, 0.0143, 0.0000, 0.0000, 0.0000, 0.0000
3, 1.4300, 143, 0.0074, -0.0348, -1.0028, 0.0131, 0.0533, 0.0205, 0.0000, 0.0000, 0.0000, 0.0000, 0.0000, 0.0000, 0.9676, -0.0172, -0.0000, 0.2519, 0.0013, 0.0016, 0.0034, 0.0000, 0.0000, 0.0000, 0.0000
1, 1.4200, 142, 0.0636, 0.0139, -0.9940, 0.0764, -0.0939, -0.0238, 0.0000, 0.0000, 0.0000, 0.0000, 0.0000, 0.0000, -0.2842, -0.3210, 0.7146, -0.5527, -0.0123, 0.9585, 1.2215, 0.0000, 0.0000, 0.0000, 0.0000
3, 1.4400, 144, 0.0082, -0.0340, -1.0013, 0.1366, -0.0519, -0.0126, 0.0000, 0.0000, 0.0000, 0.0000, 0.0000, 0.0000, 0.9676, -0.0172, -0.0000, 0.2519, 0.0006, 0.0008, 0.0019, 0.0000, 0.0000, 0.0000, 0.0000
2, 1.3800, 138, -0.1965, -0.0482, -0.9950, -0.1023, -0.0241, -0.0591, 0.0000, 0.0000, 0.0000, 0.0000, 0.0000, 0.0000, 0.9948, -0.0266, 0.0968, -0.0188, 0.0029, -0.0011, 0.0152, 0.0000, 0.0000, 0.0000, 0.0000
1, 1.4300, 143, 0.0660, 0.0124, -0.9950, 0.0405, 0.0258, -0.0418, 0.0000, 0.0000, 0.0000, 0.0000, 0.0000, 0.0000, -0.2842, -0.3210, 0.7146, -0.5527, -0.0147, 0.9601, 1.2224, 0.0000, 0.0000, 0.0000, 0.0000
3, 1.4500, 145, 0.0092, -0.0351, -1.0005, -0.0396, 0.0194, 0.0028, 0.0000, 0.0000, 0.0000, 0.0000, 0.0000, 0.0000, 0.9676, -0.0172, -0.0000, 0.2519, -0.0005, 0.0019, 0.0011, 0.0000, 0.0000, 0.0000, 0.0000
2, 1.3900, 139, -0.1976, -0.0488, -0.9944, -0.0407, -0.0399, 0.0421, 0.0000, 0.0000, 0.0000, 0.0000, 0.0000, 0.0000, 0.9948, -0.0266, 0.0968, -0.0188, 0.0040, -0.0004, 0.0146, 0.0000, 0.0000, 0.0000, 0.0000
2, 1.4000, 140, -0.1966, -0.0491, -0.9953, 0.0383, 0.1542, 0.0033, 0.0000, 0.0000, 0.0000, 0.0000, 0.0000, 0.0000, 0.9948, -0.0266, 0.0968, -0.0188, 0.0030, -0.0001, 0.0155, 0.0000, 0.0000, 0.0000, 0.0000
3, 1.4600, 146, 0.0083, -0.0343, -1.0016, -0.2152, -0.0297, -0.0508, 0.0000, 0.0000, 0.0000, 0.0000, 0.0000, 0.0000, 0.9676, -0.0172, 0.0000, 0.2519, 0.0003, 0.0011, 0.0022, 0.0000, 0.0000, 0.0000, 0.0000
2, 1.4100, 141, -0.1965, -0.0487, -0.9942, -0.1367, -0.0033, 0.1608, 0.0000, 0.0000, 0.0000, 0.0000, 0.0000, 0.0000, 0.9948, -0.0266, 0.0968, -0.0188, 0.0029, -0.0006, 0.0144, 0.0000, 0.0000, 0.0000, 0.0000
1, 1.4400, 144, 0.0628, 0.0143, -0.9961, 0.0751, 0.0600, -0.0246, 0.0000, 0.0000, 0.0000, 0.0000, 0.0000, 0.0000, -0.2842, -0.3210, 0.7146, -0.5527, -0.0115, 0.9581, 1.2235, 0.0000, 0.0000, 0.0000, 0.0000
3, 1.4700, 147, 0.0082, -0.0332, -1.0026, -0.1462, -0.2207, 0.0185, 0.0000, 0.0000, 0.0000, 0.0000, 0.0000, 0.0000, 0.9676, -0.0172, 0.0001, 0.2519, 0.0004, -0.0000, 0.0032, 0.0000, 0.0000, 0.0000, 0.0000
1, 1.4500, 145, 0.0639, 0.0127, -0.9953, 0.0398, -0.0097, 0.0283, 0.0000, 0.0000, 0.0000, 0.0000, 0.0000, 0.0000, -0.2842, -0.3210, 0.7146, -0.5527, -0.0126, 0.9598, 1.2228, 0.0000, 0.0000, 0.0000, 0.0000
2, 1.4200, 142, -0.1964, -0.0504, -0.9945, 0.0908, 0.0317, 0.0208, 0.0000, 0.0000, 0.0000, 0.0000, 0.0000, 0.0000, 0.9948, -0.0266, 0.0968, -0.0188, 0.0028, 0.0012, 0.0147, 0.0000, 0.0000, 0.0000, 0.0000
2, 1.4300, 143, -0.1974, -0.0501, -0.9951, -0.0667, -0.0033, -0.0142, 0.0000, 0.0000, 0.0000, 0.0000, 0.0000, 0.0000, 0.9948, -0.0265, 0.0967, -0.0188, 0.0038, 0.0009, 0.0153, 0.0000, 0.0000, 0.0000, 0.0000
2, 1.4400, 144, -0.1972, -0.0496, -0.9940, 0.0383, -0.0733, -0.0667, 0.0000, 0.0000, 0.0000, 0.0000, 0.0000, 0.0000, 0.9948, -0.0265, 0.0968, -0.0188, 0.0037, 0.0006, 0.0141, 0.0000, 0.0000, 0.0000, 0.0000
2, 1.4500, 145, -0.1958, -0.0488, -0.9942, 0.0383, 0.0142, -0.0667, 0.0000, 0.0000, 0.0000, 0.0000, 0.0000, 0.0000, 0.9948, -0.0265, 0.0968, -0.0188, 0.0023, -0.0002, 0.0143, 0.0000, 0.0000, 0.0000, 0.0000
3, 1.4800, 148, 0.0116, -0.0339, -1.0014, 0.0134, 0.0399, 0.0681, 0.0000, 0.0000, 0.0000, 0.0000, 0.0000, 0.0000, 0.9676, -0.0172, 0.0001, 0.2519, -0.0031, 0.0006, 0.0019, 0.0000, 0.0000, 0.0000, 0.0000
1, 1.4600, 146, 0.0631, 0.0125, -0.9961, 0.1642, -0.0414, -0.0418, 0.0000, 0.0000, 0.0000, 0.0000, 0.0000, 0.0000, -0.2842, -0.3210, 0.7146, -0.5527, -0.0116, 0.9600, 1.2235, 0.0000, 0.0000, 0.0000, 0.0000
3, 1.4900, 149, 0.0114, -0.0324, -1.0012, -0.0045, 0.0398, 0.0854, 0.0000, 0.0000, 0.0000, 0.0000, 0.0000, 0.0000, 0.9676, -0.0172, 0.0001, 0.2518, -0.0028, -0.0009, 0.0018, 0.0000, 0.0000, 0.0000, 0.0000
1, 1.4700, 147, 0.0622, 0.0129, -0.9952, -0.0504, 0.1939, 0.0625, 0.0000, 0.0000, 0.0000, 0.0000, 0.0000, 0.0000, -0.2843, -0.3210, 0.7146, -0.5527, -0.0108, 0.9596, 1.2225, 0.0000, 0.0000, 0.0000, 0.0000
2, 1.4600, 146, -0.1975, -0.0510, -0.9955, -0.1017, -0.0383, -0.0667, 0.0000, 0.0000, 0.0000, 0.0000, 0.0000, 0.0000, 0.9948, -0.0265, 0.0968, -0.0188, 0.0040, 0.0020, 0.0157, 0.0000, 0.0000, 0.0000, 0.0000
2, 1.4700, 147, -0.1950, -0.0501, -0.9951, 0.1083, 0.0317, -0.0842, 0.0000, 0.0000, 0.0000, 0.0000, 0.0000, 0.0000, 0.9948, -0.0265, 0.0968, -0.0188, 0.0015, 0.0010, 0.0152, 0.0000, 0.0000, 0.0000, 0.0000
2, 1.4800, 148, -0.1968, -0.0515, -0.9943, 0.1258, -0.0383, 0.0208, 0.0000, 0.0000, 0.0000, 0.0000, 0.0000, 0.0000, 0.9948, -0.0265, 0.0967, -0.0188, 0.0033, 0.0023, 0.0144, 0.0000, 0.0000, 0.0000, 0.0000
3, 1.5000, 150, 0.0078, -0.0327, -1.0031, -0.0018, 0.0601, -0.0719, 0.0000, 0.0000, 0.0000, 0.0000, 0.0000, 0.0000, 0.9676, -0.0172, 0.0001, 0.2518, 0.0007, -0.0005, 0.0036, 0.0000, 0.0000, 0.0000, 0.0000
1, 1.4800, 148, 0.0625, 0.0132, -0.9954, -0.2084, 0.0887, 0.1160, 0.0000, 0.0000, 0.0000, 0.0000, 0.0000, 0.0000, -0.2843, -0.3210, 0.7146, -0.5527, -0.0110, 0.9592, 1.2228, 0.0000, 0.0000, 0.0000, 0.0000
3, 1.5100, 151, 0.0107, -0.0339, -1.0010, -0.0557, -0.0269, -0.0369, 0.0000, 0.0000, 0.0000, 0.0000, 0.0000, 0.0000, 0.9676, -0.0172, -0.0000, 0.2519, -0.0021, 0.0007, 0.0016, 0.0000, 0.0000, 0.0000, 0.0000
2, 1.4900, 149, -0.1989, -0.0507, -0.9972, 0.1616, 0.0133, 0.0180, 0.0000, 0.0000, 0.0000, 0.0000, 0.0000, 0.0000, 0.9948, -0.0266, 0.0967, -0.0188, 0.0055, 0.0015, 0.0173, 0.0000, 0.0000, 0.0000, 0.0000
1, 1.4900, 149, 0.0641, 0.0130, -0.9952, 0.2872, -0.0576, -0.0247, 0.0000, 0.0000, 0.0000, 0.0000, 0.0000, 0.0000, -0.2843, -0.3210, 0.7146, -0.5527, -0.0126, 0.9594, 1.2226, 0.0000, 0.0000, 0.0000, 0.0000
1, 1.5000, 150, 0.0648, 0.0135, -0.9943, 0.0559, 0.1615, 0.0274, 0.0000, 0.0000, 0.0000, 0.0000, 0.0000, 0.0000, -0.2844, -0.3209, 0.7147, -0.5526, -0.0133, 0.9589, 1.2217, 0.0000, 0.0000, 0.0000, 0.0000
2, 1.5000, 150, -0.1963, -0.0492, -0.9940, -0.1159, 0.0454, -0.0952, 0.0000, 0.0000, 0.0000, 0.0000, 0.0000, 0.0000, 0.9948, -0.0266, 0.0967, -0.0188, 0.0028, 0.0000, 0.0141, 0.0000, 0.0000, 0.0000, 0.0000
3, 1.5200, 152, 0.0082, -0.0339, -1.0012, 0.0824, -0.1355, 0.1048, 0.0000, 0.0000, 0.0000, 0.0000, 0.0000, 0.0000, 0.9676, -0.0172, -0.0000, 0.2518, 0.0006, 0.0006, 0.0018, 0.0000, 0.0000, 0.0000, 0.0000
3, 1.5300, 153, 0.0096, -0.0345, -1.0017, -0.0907, -0.0262, -0.0547, 0.0000, 0.0000, 0.0000, 0.0000, 0.0000, 0.0000, 0.9676, -0.0172, -0.0000, 0.2518, -0.0009, 0.0011, 0.0023, 0.0000, 0.0000, 0.0000, 0.0000
1, 1.5100, 151, 0.0643, 0.0124, -0.9946, 0.0566, 0.0585, 0.0453, 0.0000, 0.0000, 0.0000, 0.0000, 0.0000, 0.0000, -0.2844, -0.3209, 0.7147, -0.5526, -0.0124, 0.9600, 1.2220, 0.0000, 0.0000, 0.0000, 0.0000
2, 1.5100, 151, -0.1967, -0.0509, -0.9937, 0.1466, -0.0071, -0.0602, 0.0000, 0.0000, 0.0000, 0.0000, 0.0000, 0.0000, 0.9948, -0.0266, 0.0967, -0.0188, 0.0032, 0.0017, 0.0138, 0.0000, 0.0000, 0.0000, 0.0000
2, 1.5200, 152, -0.1962, -0.0500, -0.9945, 0.0066, -0.0596, -0.0427, 0.0000, 0.0000, 0.0000, 0.0000, 0.0000, 0.0000, 0.9948, -0.0266, 0.0967, -0.0188, 0.0028, 0.0008, 0.0146, 0.0000, 0.0000, 0.0000, 0.0000
1, 1.5200, 152, 0.0650, 0.0137, -0.9939, -0.0266, -0.0256, 0.0448, 0.0000, 0.0000, 0.0000, 0.0000, 0.0000, 0.0000, -0.2844, -0.3209, 0.7147, -0.5526, -0.0131, 0.9587, 1.2214, 0.0000, 0.0000, 0.0000, 0.0000
3, 1.5400, 154, 0.0088, -0.0332, -1.0001, -0.0392, -0.0803, 0.0160, 0.0000, 0.0000, 0.0000, 0.0000, 0.0000, 0.0000, 0.9676, -0.0172, -0.0000, 0.2518, -0.0001, -0.0001, 0.0007, 0.0000, 0.0000, 0.0000, 0.0000
3, 1.5500, 155, 0.0086, -0.0331, -0.9996, -0.1085, -0.0089, -0.0375, 0.0000, 0.0000, 0.0000, 0.0000, 0.0000, 0.0000, 0.9676, -0.0172, -0.0000, 0.2519, 0.0001, -0.0002, 0.0002, 0.0000, 0.0000, 0.0000, 0.0000
2, 1.5300, 153, -0.1970, -0.0513, -0.9944, 0.0766, -0.0946, -0.0077, 0.0000, 0.0000, 0.0000, 0.0000, 0.0000, 0.0000, 0.9948, -0.0266, 0.0967, -0.0188, 0.0036, 0.0021, 0.0145, 0.0000, 0.0000, 0.0000, 0.0000
1, 1.5300, 153, 0.0670, 0.0160, -0.9945, -0.1377, -0.0158, 0.1146, 0.0000, 0.0000, 0.0000, 0.0000, 0.0000, 0.0000, -0.2844, -0.3209, 0.7147, -0.5526, -0.0152, 0.9565, 1.2219, 0.0000, 0.0000, 0.0000, 0.0000
2, 1.5400, 154, -0.1973, -0.0513, -0.9951, -0.1334, -0.0421, -0.0602, 0.0000, 0.0000, 0.0000, 0.0000, 0.0000, 0.0000, 0.9948, -0.0266, 0.0967, -0.0188, 0.0040, 0.0021, 0.0152, 0.0000, 0.0000, 0.0000, 0.0000
3, 1.5600, 156, 0.0082, -0.0330, -1.0003, -0.0559, 0.0420, -0.0024, 0.0000, 0.0000, 0.0000, 0.0000, 0.0000, 0.0000, 0.9676, -0.0172, 0.0001, 0.2519, 0.0004, -0.0003, 0.0008, 0.0000, 0.0000, 0.0000, 0.0000
1, 1.5400, 154, 0.0633, 0.0127, -0.9952, 0.0745, -0.0120, 0.0265, 0.0000, 0.0000, 0.0000, 0.0000, 0.0000, 0.0000, -0.2844, -0.3209, 0.7147, -0.5526, -0.0114, 0.9597, 1.2227, 0.0000, 0.0000, 0.0000, 0.0000
3, 1.5700, 157, 0.0057, -0.0326, -1.0009, -0.0525, 0.0789, -0.0733, 0.0000, 0.0000, 0.0000, 0.0000, 0.0000, 0.0000, 0.9676, -0.0172, 0.0000, 0.2519, 0.0028, -0.0006, 0.0015, 0.0000, 0.0000, 0.0000, 0.0000
2, 1.5500, 155, -0.1977, -0.0493, -0.9951, -0.0109, -0.0596, -0.0777, 0.0000, 0.0000, 0.0000, 0.0000, 0.0000, 0.0000, 0.9948, -0.0266, 0.0967, -0.0188, 0.0043, 0.0001, 0.0152, 0.0000, 0.0000, 0.0000, 0.0000
1, 1.5500, 155, 0.0634, 0.0136, -0.9964, 0.0218, 0.0568, -0.0260, 0.0000, 0.0000, 0.0000, 0.0000, 0.0000, 0.0000, -0.2844, -0.3209, 0.7147, -0.5526, -0.0115, 0.9588, 1.2239, 0.0000, 0.0000, 0.0000, 0.0000
3, 1.5800, 158, 0.0094, -0.0323, -1.0013, -0.1881, 0.0820, -0.0246, 0.0000, 0.0000, 0.0000, 0.0000, 0.0000, 0.0000, 0.9676, -0.0171, 0.0000, 0.2519, -0.0008, -0.0009, 0.0019, 0.0000, 0.0000, 0.0000, 0.0000
2, 1.5600, 156, -0.1968, -0.0504, -0.9944, 0.1291, 0.0979, -0.1127, 0.0000, 0.0000, 0.0000, 0.0000, 0.0000, 0.0000, 0.9948, -0.0266, 0.0967, -0.0188, 0.0034, 0.0011, 0.0145, 0.0000, 0.0000, 0.0000, 0.0000
1, 1.5600, 156, 0.0639, 0.0144, -0.9946, -0.1704, -0.0300, -0.0598, 0.0000, 0.0000, 0.0000, 0.0000, 0.0000, 0.0000, -0.2843, -0.3209, 0.7147, -0.5526, -0.0120, 0.9580, 1.2222, 0.0000, 0.0000, 0.0000, 0.0000
3, 1.5900, 159, 0.0073, -0.0337, -1.0021, 0.0924, -0.0266, 0.0310, 0.0000, 0.0000, 0.0000, 0.0000, 0.0000, 0.0000, 0.9676, -0.0171, 0.0000, 0.2519, 0.0013, 0.0005, 0.0027, 0.0000, 0.0000, 0.0000, 0.0000
2, 1.5700, 157, -0.1962, -0.0510, -0.9949, -0.0109, 0.0454, 0.0623, 0.0000, 0.0000, 0.0000, 0.0000, 0.0000, 0.0000, 0.9948, -0.0266, 0.0967, -0.0188, 0.0029, 0.0018, 0.0150, 0.0000, 0.0000, 0.0000, 0.0000
3, 1.6000, 160, 0.0084, -0.0339, -1.0021, 0.1286, -0.0261, -0.0211, 0.0000, 0.0000, 0.0000, 0.0000, 0.0000, 0.0000, 0.9676, -0.0172, 0.0000, 0.2519, 0.0001, 0.0007, 0.0027, 0.0000, 0.0000, 0.0000, 0.0000
2, 1.5800, 158, -0.1993, -0.0488, -0.9965, 0.0941, -0.1821, 0.0798, 0.0000, 0.0000, 0.0000, 0.0000, 0.0000, 0.0000, 0.9948, -0.0266, 0.0968, -0.0188, 0.0059, -0.0005, 0.0166, 0.0000, 0.0000, 0.0000, 0.0000
2, 1.5900, 159, -0.1971, -0.0481, -0.9945, -0.1159, 0.0979, -0.0427, 0.0000, 0.0000, 0.0000, 0.0000, 0.0000, 0.0000, 0.9948, -0.0266, 0.0968, -0.0188, 0.0036, -0.0012, 0.0147, 0.0000, 0.0000, 0.0000, 0.0000
3, 1.6100, 161, 0.0086, -0.0361, -0.9998, 0.0560, -0.0968, 0.0836, 0.0000, 0.0000, 0.0000, 0.0000, 0.0000, 0.0000, 0.9676, -0.0173, 0.0001, 0.2519, -0.0001, 0.0028, 0.0004, 0.0000, 0.0000, 0.0000, 0.0000
1, 1.5700, 157, 0.0647, 0.0142, -0.9949, -0.1182, -0.0476, -0.0075, 0.0000, 0.0000, 0.0000, 0.0000, 0.0000, 0.0000, -0.2843, -0.3209, 0.7147, -0.5526, -0.0129, 0.9581, 1.2226, 0.0000, 0.0000, 0.0000, 0.0000
2, 1.6000, 160, -0.1957, -0.0502, -0.9946, 0.0487, -0.0902, 0.0093, 0.0000, 0.0000, 0.0000, 0.0000, 0.0000, 0.0000, 0.9948, -0.0266, 0.0968, -0.0188, 0.0022, 0.0010, 0.0148, 0.0000, 0.0000, 0.0000, 0.0000
1, 1.5800, 158, 0.0634, 0.0122, -0.9958, -0.0131, 0.0048, -0.0082, 0.0000, 0.0000, 0.0000, 0.0000, 0.0000, 0.0000, -0.2843, -0.3209, 0.7147, -0.5526, -0.0116, 0.9602, 1.2234, 0.0000, 0.0000, 0.0000, 0.0000
1, 1.5900, 159, 0.0618, 0.0131, -0.9958, -0.1011, -0.0480, 0.0273, 0.0000, 0.0000, 0.0000, 0.0000, 0.0000, 0.0000, -0.2843, -0.3209, 0.7147, -0.5526, -0.0100, 0.9592, 1.2235, 0.0000, 0.0000, 0.0000, 0.0000
3, 1.6200, 162, 0.0115, -0.0333, -1.0019, 0.1282, 0.0081, 0.0136, 0.0000, 0.0000, 0.0000, 0.0000, 0.0000, 0.0000, 0.9676, -0.0173, 0.0001, 0.2518, -0.0030, -0.0002, 0.0025, 0.0000, 0.0000, 0.0000, 0.0000
2, 1.6100, 161, -0.1976, -0.0500, -0.9944, -0.0038, 0.0148, 0.0268, 0.0000, 0.0000, 0.0000, 0.0000, 0.0000, 0.0000, 0.9948, -0.0266, 0.0968, -0.0188, 0.0040, 0.0008, 0.0145, 0.0000, 0.0000, 0.0000, 0.0000
3, 1.6300, 163, 0.0089, -0.0336, -0.9995, 0.1276, 0.0074, 0.0486, 0.0000, 0.0000, 0.0000, 0.0000, 0.0000, 0.0000, 0.9676, -0.0173, 0.0001, 0.2518, -0.0004, 0.0000, 0.0001, 0.0000, 0.0000, 0.0000, 0.0000
1, 1.6000, 160, 0.0633, 0.0130, -0.9976, -0.0848, 0.0541, 0.0617, 0.0000, 0.0000, 0.0000, 0.0000, 0.0000, 0.0000, -0.2843, -0.3209, 0.7147, -0.5526, -0.0115, 0.9593, 1.2253, 0.0000, 0.0000, 0.0000, 0.0000
2, 1.6200, 162, -0.1968, -0.0481, -0.9955, 0.1537, -0.1077, 0.0268, 0.0000, 0.0000, 0.0000, 0.0000, 0.0000, 0.0000, 0.9948, -0.0266, 0.0968, -0.0188, 0.0032, -0.0012, 0.0157, 0.0000, 0.0000, 0.0000, 0.0000
1, 1.6100, 161, 0.0645, 0.0128, -0.9941, 0.0393, -0.0124, 0.0267, 0.0000, 0.0000, 0.0000, 0.0000, 0.0000, 0.0000, -0.2843, -0.3209, 0.7147, -0.5526, -0.0128, 0.9596, 1.2216, 0.0000, 0.0000, 0.0000, 0.0000
3, 1.6400, 164, 0.0071, -0.0351, -1.0023, 0.0230, 0.0099, -0.0222, 0.0000, 0.0000, 0.0000, 0.0000, 0.0000, 0.0000, 0.9676, -0.0173, 0.0001, 0.2518, 0.0015, 0.0015, 0.0029, 0.0000, 0.0000, 0.0000, 0.0000
2, 1.6300, 163, -0.1972, -0.0499, -0.9958, -0.2138, 0.0148, -0.0082, 0.0000, 0.0000, 0.0000, 0.0000, 0.0000, 0.0000, 0.9948, -0.0266, 0.0968, -0.0188, 0.0036, 0.0006, 0.0159, 0.0000, 0.0000, 0.0000, 0.0000
3, 1.6500, 165, 0.0067, -0.0353, -1.0010, -0.0117, 0.0110, -0.0575, 0.0000, 0.0000, 0.0000, 0.0000, 0.0000, 0.0000, 0.9676, -0.0173, 0.0001, 0.2519, 0.0018, 0.0017, 0.0016, 0.0000, 0.0000, 0.0000, 0.0000
1, 1.6200, 162, 0.0642, 0.0128, -0.9963, 0.0612, -0.0646, -0.0127, 0.0000, 0.0000, 0.0000, 0.0000, 0.0000, 0.0000, -0.2843, -0.3209, 0.7147, -0.5526, -0.0125, 0.9596, 1.2238, 0.0000, 0.0000, 0.0000, 0.0000
1, 1.6300, 163, 0.0642, 0.0134, -0.9967, 0.1701, -0.2212, 0.0878, 0.0000, 0.0000, 0.0000, 0.0000, 0.0000, 0.0000, -0.2843, -0.3209, 0.7147, -0.5526, -0.0125, 0.9590, 1.2242, 0.0000, 0.0000, 0.0000, 0.0000
1, 1.6400, 164, 0.0628, 0.0139, -0.9959, -0.0758, 0.0539, -0.1223, 0.0000, 0.0000, 0.0000, 0.0000, 0.0000, 0.0000, -0.2843, -0.3209, 0.7147, -0.5526, -0.0111, 0.9585, 1.2234, 0.0000, 0.0000, 0.0000, 0.0000
2, 1.6400, 164, -0.1983, -0.0513, -0.9946, 0.1887, -0.1077, 0.0443, 0.0000, 0.0000, 0.0000, 0.0000, 0.0000, 0.0000, 0.9948, -0.0266, 0.0968, -0.0188, 0.0047, 0.0021, 0.0147, 0.0000, 0.0000, 0.0000, 0.0000
3, 1.6600, 166, 0.0095, -0.0333, -1.0002, 0.0925, 0.0426, 0.0480, 0.0000, 0.0000, 0.0000, 0.0000, 0.0000, 0.0000, 0.9676, -0.0173, 0.0001, 0.2518, -0.0010, -0.0002, 0.0008, 0.0000, 0.0000, 0.0000, 0.0000
2, 1.6500, 165, -0.1963, -0.0513, -0.9941, -0.0563, -0.0902, 0.0093, 0.0000, 0.0000, 0.0000, 0.0000, 0.0000, 0.0000, 0.9948, -0.0266, 0.0968, -0.0188, 0.0026, 0.0020, 0.0142, 0.0000, 0.0000, 0.0000, 0.0000
3, 1.6700, 167, 0.0091, -0.0337, -1.0019, -0.0480, -0.0936, -0.0222, 0.0000, 0.0000, 0.0000, 0.0000, 0.0000, 0.0000, 0.9676, -0.0173, 0.0001, 0.2518, -0.0007, 0.0002, 0.0025, 0.0000, 0.0000, 0.0000, 0.0000
1, 1.6500, 165, 0.0639, 0.0142, -0.9960, -0.0062, -0.1197, 0.0530, 0.0000, 0.0000, 0.0000, 0.0000, 0.0000, 0.0000, -0.2843, -0.3210, 0.7147, -0.5526, -0.0122, 0.9582, 1.2235, 0.0000, 0.0000, 0.0000, 0.0000
2, 1.6600, 166, -0.1960, -0.0486, -0.9943, 0.0137, 0.0848, 0.0793, 0.0000, 0.0000, 0.0000, 0.0000, 0.0000, 0.0000, 0.9948, -0.0266, 0.0968, -0.0188, 0.0023, -0.0007, 0.0145, 0.0000, 0.0000, 0.0000, 0.0000
1, 1.6600, 166, 0.0641, 0.0153, -0.9955, 0.0282, 0.2260, -0.1235, 0.0000, 0.0000, 0.0000, 0.0000, 0.0000, 0.0000, -0.2843, -0.3210, 0.7147, -0.5526, -0.0126, 0.9571, 1.2231, 0.0000, 0.0000, 0.0000, 0.0000
2, 1.6700, 167, -0.1954, -0.0503, -0.9948, -0.0913, -0.0902, 0.0093, 0.0000, 0.0000, 0.0000, 0.0000, 0.0000, 0.0000, 0.9948, -0.0266, 0.0968, -0.0188, 0.0017, 0.0010, 0.0150, 0.0000, 0.0000, 0.0000, 0.0000
1, 1.6700, 167, 0.0608, 0.0114, -0.9969, -0.0076, 0.0862, 0.0170, 0.0000, 0.0000, 0.0000, 0.0000, 0.0000, 0.0000, -0.2843, -0.3210, 0.7147, -0.5526, -0.0092, 0.9610, 1.2245, 0.0000, 0.0000, 0.0000, 0.0000
3, 1.6800, 168, 0.0114, -0.0337, -1.0003, -0.0159, 0.0366, -0.0577, 0.0000, 0.0000, 0.0000, 0.0000, 0.0000, 0.0000, 0.9676, -0.0173, 0.0001, 0.2519, -0.0029, 0.0002, 0.0009, 0.0000, 0.0000, 0.0000, 0.0000
1, 1.6800, 168, 0.0621, 0.0133, -0.9966, 0.0280, 0.0352, 0.0172, 0.0000, 0.0000, 0.0000, 0.0000, 0.0000, 0.0000, -0.2843, -0.3210, 0.7147, -0.5526, -0.0106, 0.9591, 1.2242, 0.0000, 0.0000, 0.0000, 0.0000
2, 1.6800, 168, -0.1970, -0.0508, -0.9933, -0.0388, -0.0027, -0.0607, 0.0000, 0.0000, 0.0000, 0.0000, 0.0000, 0.0000, 0.9948, -0.0266, 0.0968, -0.0188, 0.0034, 0.0016, 0.0135, 0.0000, 0.0000, 0.0000, 0.0000
3, 1.6900, 169, 0.0082, -0.0336, -1.0002, -0.0709, 0.0868, 0.0812, 0.0000, 0.0000, 0.0000, 0.0000, 0.0000, 0.0000, 0.9676, -0.0173, 0.0001, 0.2518, 0.0003, 0.0001, 0.0008, 0.0000, 0.0000, 0.0000, 0.0000
1, 1.6900, 169, 0.0647, 0.0145, -0.9951, 0.0106, 0.0180, 0.0173, 0.0000, 0.0000, 0.0000, 0.0000, 0.0000, 0.0000, -0.2843, -0.3210, 0.7147, -0.5526, -0.0131, 0.9578, 1.2227, 0.0000, 0.0000, 0.0000, 0.0000
3, 1.7000, 170, 0.0111, -0.0349, -1.0030, -0.2099, -0.0478, -0.0763, 0.0000, 0.0000, 0.0000, 0.0000, 0.0000, 0.0000, 0.9676, -0.0172, 0.0001, 0.2519, -0.0026, 0.0015, 0.0036, 0.0000, 0.0000, 0.0000, 0.0000
2, 1.6900, 169, -0.1964, -0.0486, -0.9949, 0.0837, -0.0727, 0.0093, 0.0000, 0.0000, 0.0000, 0.0000, 0.0000, 0.0000, 0.9948, -0.0266, 0.0968, -0.0188, 0.0027, -0.0007, 0.0150, 0.0000, 0.0000, 0.0000, 0.0000
1, 1.7000, 170, 0.0663, 0.0145, -0.9941, 0.0468, -0.0669, 0.0002, 0.0000, 0.0000, 0.0000, 0.0000, 0.0000, 0.0000, -0.2844, -0.3209, 0.7147, -0.5526, -0.0146, 0.9579, 1.2217, 0.0000, 0.0000, 0.0000, 0.0000
1, 1.7100, 171, 0.0621, 0.0148, -0.9966, 0.1350, -0.1002, 0.0000, 0.0000, 0.0000, 0.0000, 0.0000, 0.0000, 0.0000, -0.2844, -0.3209, 0.7147, -0.5526, -0.0103, 0.9576, 1.2242, 0.0000, 0.0000, 0.0000, 0.0000
3, 1.7100, 171, 0.0086, -0.0349, -1.0020, 0.0355, -0.0868, -0.0040, 0.0000, 0.0000, 0.0000, 0.0000, 0.0000, 0.0000, 0.9676, -0.0173, 0.0002, 0.2519, -0.0002, 0.0014, 0.0026, 0.0000, 0.0000, 0.0000, 0.0000
1, 1.7200, 172, 0.0631, 0.0134, -0.9944, -0.0111, 0.0165, 0.1218, 0.0000, 0.0000, 0.0000, 0.0000, 0.0000, 0.0000, -0.2844, -0.3209, 0.7147, -0.5526, -0.0112, 0.9590, 1.2220, 0.0000, 0.0000, 0.0000, 0.0000
2, 1.7000, 170, -0.1966, -0.0493, -0.9944, -0.0621, 0.0088, 0.0447, 0.0000, 0.0000, 0.0000, 0.0000, 0.0000, 0.0000, 0.9948, -0.0266, 0.0968, -0.0188, 0.0030, 0.0001, 0.0146, 0.0000, 0.0000, 0.0000, 0.0000
3, 1.7200, 172, 0.0089, -0.0347, -0.9998, 0.0891, 0.0173, -0.0217, 0.0000, 0.0000, 0.0000, 0.0000, 0.0000, 0.0000, 0.9676, -0.0173, 0.0002, 0.2519, -0.0005, 0.0011, 0.0004, 0.0000, 0.0000, 0.0000, 0.0000
2, 1.7100, 171, -0.1951, -0.0496, -0.9958, -0.0990, -0.1099, 0.1323, 0.0000, 0.0000, 0.0000, 0.0000, 0.0000, 0.0000, 0.9948, -0.0266, 0.0968, -0.0188, 0.0014, 0.0003, 0.0159, 0.0000, 0.0000, 0.0000, 0.0000
3, 1.7300, 173, 0.0102, -0.0334, -1.0021, -0.2625, 0.1261, -0.0430, 0.0000, 0.0000, 0.0000, 0.0000, 0.0000, 0.0000, 0.9676, -0.0173, 0.0002, 0.2519, -0.0018, -0.0002, 0.0027, 0.0000, 0.0000, 0.0000, 0.0000
1, 1.7300, 173, 0.0660, 0.0139, -0.9950, -0.0338, -0.1505, -0.0008, 0.0000, 0.0000, 0.0000, 0.0000, 0.0000, 0.0000, -0.2844, -0.3209, 0.7147, -0.5526, -0.0142, 0.9584, 1.2226, 0.0000, 0.0000, 0.0000, 0.0000
2, 1.7200, 172, -0.1953, -0.0504, -0.9947, -0.1165, -0.0224, 0.1323, 0.0000, 0.0000, 0.0000, 0.0000, 0.0000, 0.0000, 0.9948, -0.0266, 0.0968, -0.0188, 0.0017, 0.0012, 0.0149, 0.0000, 0.0000, 0.0000, 0.0000
3, 1.7400, 174, 0.0087, -0.0332, -1.0021, 0.0533, 0.0171, 0.0129, 0.0000, 0.0000, 0.0000, 0.0000, 0.0000, 0.0000, 0.9676, -0.0173, 0.0002, 0.2519, -0.0003, -0.0003, 0.0027, 0.0000, 0.0000, 0.0000, 0.0000
2, 1.7300, 173, -0.1988, -0.0498, -0.9948, 0.0935, -0.0224, -0.0602, 0.0000, 0.0000, 0.0000, 0.0000, 0.0000, 0.0000, 0.9948, -0.0266, 0.0969, -0.0188, 0.0051, 0.0006, 0.0149, 0.0000, 0.0000, 0.0000, 0.0000
3, 1.7500, 175, 0.0064, -0.0332, -1.0011, 0.2126, 0.1025, -0.0037, 0.0000, 0.0000, 0.0000, 0.0000, 0.0000, 0.0000, 0.9676, -0.0173, 0.0002, 0.2519, 0.0020, -0.0004, 0.0017, 0.0000, 0.0000, 0.0000, 0.0000
1, 1.7400, 174, 0.0633, 0.0130, -0.9957, -0.0517, -0.0126, -0.0713, 0.0000, 0.0000, 0.0000, 0.0000, 0.0000, 0.0000, -0.2844, -0.3209, 0.7147, -0.5526, -0.0115, 0.9594, 1.2233, 0.0000, 0.0000, 0.0000, 0.0000
2, 1.7400, 174, -0.1982, -0.0502, -0.9951, -0.1340, 0.0301, 0.0273, 0.0000, 0.0000, 0.0000, 0.0000, 0.0000, 0.0000, 0.9948, -0.0266, 0.0969, -0.0188, 0.0045, 0.0009, 0.0152, 0.0000, 0.0000, 0.0000, 0.0000
1, 1.7500, 175, 0.0647, 0.0136, -0.9950, -0.0686, -0.1157, -0.0532, 0.0000, 0.0000, 0.0000, 0.0000, 0.0000, 0.0000, -0.2844, -0.3209, 0.7147, -0.5525, -0.0128, 0.9587, 1.2226, 0.0000, 0.0000, 0.0000, 0.0000
3, 1.7600, 176, 0.0093, -0.0336, -1.0004, -0.1744, 0.1251, -0.0422, 0.0000, 0.0000, 0.0000, 0.0000, 0.0000, 0.0000, 0.9676, -0.0174, 0.0003, 0.2519, -0.0009, -0.0001, 0.0010, 0.0000, 0.0000, 0.0000, 0.0000
2, 1.7500, 175, -0.2000, -0.0515, -0.9961, -0.1165, -0.0399, 0.1673, 0.0000, 0.0000, 0.0000, 0.0000, 0.0000, 0.0000, 0.9948, -0.0266, 0.0969, -0.0188, 0.0062, 0.0022, 0.0163, 0.0000, 0.0000, 0.0000, 0.0000
2, 1.7600, 176, -0.1949, -0.0514, -0.9946, -0.0815, 0.0826, 0.0973, 0.0000, 0.0000, 0.0000, 0.0000, 0.0000, 0.0000, 0.9948, -0.0266, 0.0969, -0.0188, 0.0012, 0.0021, 0.0147, 0.0000, 0.0000, 0.0000, 0.0000
2, 1.7700, 177, -0.1965, -0.0510, -0.9951, 0.1285, 0.0301, 0.1323, 0.0000, 0.0000, 0.0000, 0.0000, 0.0000, 0.0000, 0.9948, -0.0266, 0.0969, -0.0188, 0.0028, 0.0018, 0.0152, 0.0000, 0.0000, 0.0000, 0.0000
2, 1.7800, 178, -0.1960, -0.0505, -0.9953, -0.0115, -0.0049, 0.0273, 0.0000, 0.0000, 0.0000, 0.0000, 0.0000, 0.0000, 0.9948, -0.0267, 0.0968, -0.0188, 0.0023, 0.0012, 0.0155, 0.0000, 0.0000, 0.0000, 0.0000
3, 1.7700, 177, 0.0093, -0.0338, -1.0011, -0.1407, 0.0538, 0.0284, 0.0000, 0.0000, 0.0000, 0.0000, 0.0000, 0.0000, 0.9676, -0.0173, 0.0003, 0.2519, -0.0010, 0.0001, 0.0017, 0.0000, 0.0000, 0.0000, 0.0000
3, 1.7800, 178, 0.0098, -0.0341, -1.0023, -0.1047, -0.0412, 0.0643, 0.0000, 0.0000, 0.0000, 0.0000, 0.0000, 0.0000, 0.9676, -0.0173, 0.0003, 0.2518, -0.0015, 0.0004, 0.0029, 0.0000, 0.0000, 0.0000, 0.0000
3, 1.7900, 179, 0.0084, -0.0314, -1.0003, 0.2730, 0.0745, 0.0319, 0.0000, 0.0000, 0.0000, 0.0000, 0.0000, 0.0000, 0.9676, -0.0174, 0.0003, 0.2518, -0.0002, -0.0024, 0.0009, 0.0000, 0.0000, 0.0000, 0.0000
1, 1.7600, 176, 0.0639, 0.0133, -0.9948, -0.0353, 0.0205, -0.0016, 0.0000, 0.0000, 0.0000, 0.0000, 0.0000, 0.0000, -0.2844, -0.3209, 0.7148, -0.5525, -0.0120, 0.9591, 1.2225, 0.0000, 0.0000, 0.0000, 0.0000
1, 1.7700, 177, 0.0635, 0.0138, -0.9957, -0.1413, -0.0677, 0.0865, 0.0000, 0.0000, 0.0000, 0.0000, 0.0000, 0.0000, -0.2843, -0.3209, 0.7148, -0.5525, -0.0116, 0.9586, 1.2235, 0.0000, 0.0000, 0.0000, 0.0000
2, 1.7900, 179, -0.1965, -0.0503, -0.9937, 0.1460, 0.0651, 0.0448, 0.0000, 0.0000, 0.0000, 0.0000, 0.0000, 0.0000, 0.9948, -0.0267, 0.0968, -0.0188, 0.0029, 0.0008, 0.0138, 0.0000, 0.0000, 0.0000, 0.0000
3, 1.8000, 180, 0.0066, -0.0319, -1.0017, -0.0633, 0.0594, 0.1164, 0.0000, 0.0000, 0.0000, 0.0000, 0.0000, 0.0000, 0.9676, -0.0174, 0.0003, 0.2518, 0.0016, -0.0018, 0.0023, 0.0000, 0.0000, 0.0000, 0.0000
2, 1.8000, 180, -0.1976, -0.0504, -0.9957, 0.1118, -0.0183, 0.0489, 0.0000, 0.0000, 0.0000, 0.0000, 0.0000, 0.0000, 0.9948, -0.0267, 0.0968, -0.0189, 0.0041, 0.0009, 0.0159, 0.0000, 0.0000, 0.0000, 0.0000
2, 1.8100, 181, -0.1981, -0.0494, -0.9951, -0.0973, -0.0667, 0.0530, 0.0000, 0.0000, 0.0000, 0.0000, 0.0000, 0.0000, 0.9948, -0.0267, 0.0968, -0.0189, 0.0045, -0.0001, 0.0153, 0.0000, 0.0000, 0.0000, 0.0000
3, 1.8100, 181, 0.0076, -0.0345, -1.0019, 0.1492, 0.0409, 0.0485, 0.0000, 0.0000, 0.0000, 0.0000, 0.0000, 0.0000, 0.9676, -0.0174, 0.0004, 0.2518, 0.0006, 0.0007, 0.0025, 0.0000, 0.0000, 0.0000, 0.0000
3, 1.8200, 182, 0.0098, -0.0332, -0.9980, 0.0249, 0.0239, 0.0999, 0.0000, 0.0000, 0.0000, 0.0000, 0.0000, 0.0000, 0.9676, -0.0174, 0.0004, 0.2518, -0.0019, -0.0007, -0.0014, 0.0000, 0.0000, 0.0000, 0.0000
1, 1.7800, 178, 0.0638, 0.0132, -0.9958, 0.0355, -0.0646, 0.0160, 0.0000, 0.0000, 0.0000, 0.0000, 0.0000, 0.0000, -0.2843, -0.3209, 0.7148, -0.5525, -0.0120, 0.9591, 1.2235, 0.0000, 0.0000, 0.0000, 0.0000
2, 1.8200, 182, -0.1972, -0.0506, -0.9947, 0.0427, 0.0033, 0.0705, 0.0000, 0.0000, 0.0000, 0.0000, 0.0000, 0.0000, 0.9948, -0.0267, 0.0968, -0.0189, 0.0036, 0.0011, 0.0148, 0.0000, 0.0000, 0.0000, 0.0000
1, 1.7900, 179, 0.0656, 0.0146, -0.9952, -0.1038, -0.1160, -0.0531, 0.0000, 0.0000, 0.0000, 0.0000, 0.0000, 0.0000, -0.2843, -0.3209, 0.7148, -0.5525, -0.0138, 0.9577, 1.2229, 0.0000, 0.0000, 0.0000, 0.0000
1, 1.8000, 180, 0.0631, 0.0126, -0.9952, 0.0165, 0.0717, 0.0329, 0.0000, 0.0000, 0.0000, 0.0000, 0.0000, 0.0000, -0.2844, -0.3209, 0.7148, -0.5525, -0.0112, 0.9598, 1.2229, 0.0000, 0.0000, 0.0000, 0.0000
1, 1.8100, 181, 0.0634, 0.0120, -0.9964, -0.0526, -0.0139, -0.0014, 0.0000, 0.0000, 0.0000, 0.0000, 0.0000, 0.0000, -0.2844, -0.3209, 0.7148, -0.5525, -0.0116, 0.9604, 1.2242, 0.0000, 0.0000, 0.0000, 0.0000
3, 1.8300, 183, 0.0080, -0.0334, -1.0022, 0.0089, 0.0605, 0.0122, 0.0000, 0.0000, 0.0000, 0.0000, 0.0000, 0.0000, 0.9676, -0.0174, 0.0004, 0.2518, -0.0001, -0.0005, 0.0028, 0.0000, 0.0000, 0.0000, 0.0000
1, 1.8200, 182, 0.0649, 0.0142, -0.9951, -0.1751, -0.0316, -0.0358, 0.0000, 0.0000, 0.0000, 0.0000, 0.0000, 0.0000, -0.2843, -0.3209, 0.7148, -0.5525, -0.0130, 0.9582, 1.2228, 0.0000, 0.0000, 0.0000, 0.0000
1, 1.8300, 183, 0.0647, 0.0147, -0.9962, -0.0235, 0.0405, -0.0378, 0.0000, 0.0000, 0.0000, 0.0000, 0.0000, 0.0000, -0.2843, -0.3209, 0.7148, -0.5525, -0.0128, 0.9577, 1.2240, 0.0000, 0.0000, 0.0000, 0.0000
2, 1.8300, 183, -0.1970, -0.0494, -0.9944, 0.0252, -0.1017, 0.0530, 0.0000, 0.0000, 0.0000, 0.0000, 0.0000, 0.0000, 0.9948, -0.0267, 0.0968, -0.0189, 0.0034, -0.0001, 0.0145, 0.0000, 0.0000, 0.0000, 0.0000
2, 1.8400, 184, -0.1964, -0.0507, -0.9957, 0.0602, 0.0383, -0.0170, 0.0000, 0.0000, 0.0000, 0.0000, 0.0000, 0.0000, 0.9948, -0.0267, 0.0968, -0.0189, 0.0027, 0.0011, 0.0159, 0.0000, 0.0000, 0.0000, 0.0000
3, 1.8400, 184, 0.0091, -0.0358, -1.0016, -0.0784, 0.1144, -0.0238, 0.0000, 0.0000, 0.0000, 0.0000, 0.0000, 0.0000, 0.9676, -0.0174, 0.0004, 0.2518, -0.0011, 0.0019, 0.0022, 0.0000, 0.0000, 0.0000, 0.0000
1, 1.8400, 184, 0.0647, 0.0140, -0.9949, 0.1004, 0.0083, -0.0730, 0.0000, 0.0000, 0.0000, 0.0000, 0.0000, 0.0000, -0.2843, -0.3209, 0.7148, -0.5525, -0.0128, 0.9583, 1.2227, 0.0000, 0.0000, 0.0000, 0.0000
1, 1.8500, 185, 0.0644, 0.0139, -0.9967, -0.0594, 0.0392, 0.0147, 0.0000, 0.0000, 0.0000, 0.0000, 0.0000, 0.0000, -0.2843, -0.3209, 0.7148, -0.5525, -0.0125, 0.9584, 1.2245, 0.0000, 0.0000, 0.0000, 0.0000
2, 1.8500, 185, -0.1965, -0.0494, -0.9944, -0.3073, 0.0208, 0.0355, 0.0000, 0.0000, 0.0000, 0.0000, 0.0000, 0.0000, 0.9948, -0.0267, 0.0968, -0.0189, 0.0029, -0.0001, 0.0146, 0.0000, 0.0000, 0.0000, 0.0000
3, 1.8500, 185, 0.0074, -0.0322, -1.0019, -0.0778, 0.0632, -0.0759, 0.0000, 0.0000, 0.0000, 0.0000, 0.0000, 0.0000, 0.9676, -0.0174, 0.0004, 0.2518, 0.0006, -0.0017, 0.0025, 0.0000, 0.0000, 0.0000, 0.0000
2, 1.8600, 186, -0.1973, -0.0503, -0.9947, 0.1302, 0.1433, -0.0170, 0.0000, 0.0000, 0.0000, 0.0000, 0.0000, 0.0000, 0.9948, -0.0267, 0.0968, -0.0189, 0.0037, 0.0008, 0.0149, 0.0000, 0.0000, 0.0000, 0.0000
3, 1.8600, 186, 0.0077, -0.0324, -1.0015, 0.1147, 0.0075, -0.0040, 0.0000, 0.0000, 0.0000, 0.0000, 0.0000, 0.0000, 0.9676, -0.0174, 0.0004, 0.2518, 0.0003, -0.0014, 0.0021, 0.0000, 0.0000, 0.0000, 0.0000
1, 1.8600, 186, 0.0624, 0.0142, -0.9970, 0.0641, 0.0237, -0.0031, 0.0000, 0.0000, 0.0000, 0.0000, 0.0000, 0.0000, -0.2843, -0.3209, 0.7148, -0.5525, -0.0106, 0.9581, 1.2249, 0.0000, 0.0000, 0.0000, 0.0000
2, 1.8700, 187, -0.1976, -0.0504, -0.9951, -0.0623, 0.0558, 0.0355, 0.0000, 0.0000, 0.0000, 0.0000, 0.0000, 0.0000, 0.9948, -0.0267, 0.0968, -0.0189, 0.0040, 0.0009, 0.0152, 0.0000, 0.0000, 0.0000, 0.0000
1, 1.8700, 187, 0.0642, 0.0148, -0.9963, 0.1540, -0.0593, -0.0903, 0.0000, 0.0000, 0.0000, 0.0000, 0.0000, 0.0000, -0.2843, -0.3209, 0.7148, -0.5525, -0.0124, 0.9575, 1.2242, 0.0000, 0.0000, 0.0000, 0.0000
3, 1.8700, 187, 0.0107, -0.0342, -1.0008, 0.0421, 0.0060, 0.1177, 0.0000, 0.0000, 0.0000, 0.0000, 0.0000, 0.0000, 0.9676, -0.0174, 0.0004, 0.2518, -0.0028, 0.0003, 0.0014, 0.0000, 0.0000, 0.0000, 0.0000
2, 1.8800, 188, -0.1971, -0.0490, -0.9965, 0.0077, -0.0317, -0.0345, 0.0000, 0.0000, 0.0000, 0.0000, 0.0000, 0.0000, 0.9948, -0.0267, 0.0968, -0.0189, 0.0036, -0.0005, 0.0167, 0.0000, 0.0000, 0.0000, 0.0000
3, 1.8800, 188, 0.0074, -0.0325, -1.0017, -0.1417, 0.0490, 0.0410, 0.0000, 0.0000, 0.0000, 0.0000, 0.0000, 0.0000, 0.9676, -0.0174, 0.0004, 0.2518, 0.0005, -0.0014, 0.0023, 0.0000, 0.0000, 0.0000, 0.0000
1, 1.8800, 188, 0.0637, 0.0139, -0.9954, 0.0115, 0.0406, -0.0204, 0.0000, 0.0000, 0.0000, 0.0000, 0.0000, 0.0000, -0.2843, -0.3209, 0.7148, -0.5525, -0.0119, 0.9584, 1.2232, 0.0000, 0.0000, 0.0000, 0.0000
1, 1.8900, 189, 0.0635, 0.0156, -0.9945, -0.1289, 0.0569, -0.0550, 0.0000, 0.0000, 0.0000, 0.0000, 0.0000, 0.0000, -0.2843, -0.3209, 0.7148, -0.5525, -0.0117, 0.9567, 1.2223, 0.0000, 0.0000, 0.0000, 0.0000
2, 1.8900, 189, -0.1963, -0.0502, -0.9952, -0.1498, -0.0317, -0.0170, 0.0000, 0.0000, 0.0000, 0.0000, 0.0000, 0.0000, 0.9948, -0.0267, 0.0968, -0.0189, 0.0027, 0.0007, 0.0154, 0.0000, 0.0000, 0.0000, 0.0000
3, 1.8900, 189, 0.0087, -0.0329, -1.0016, -0.2206, -0.0485, -0.0338, 0.0000, 0.0000, 0.0000, 0.0000, 0.0000, 0.0000, 0.9676, -0.0174, 0.0004, 0.2518, -0.0008, -0.0009, 0.0022, 0.0000, 0.0000, 0.0000, 0.0000
2, 1.9000, 190, -0.1971, -0.0493, -0.9957, 0.0469, 0.0725, 0.0660, 0.0000, 0.0000, 0.0000, 0.0000, 0.0000, 0.0000, 0.9948, -0.0267, 0.0968, -0.0189, 0.0035, -0.0002, 0.0158, 0.0000, 0.0000, 0.0000, 0.0000
3, 1.9000, 190, 0.0083, -0.0322, -1.0006, 0.0440, 0.1044, 0.0024, 0.0000, 0.0000, 0.0000, 0.0000, 0.0000, 0.0000, 0.9676, -0.0174, 0.0004, 0.2518, -0.0003, -0.0017, 0.0012, 0.0000, 0.0000, 0.0000, 0.0000
2, 1.9100, 191, -0.1955, -0.0504, -0.9955, -0.0804, 0.0875, -0.0350, 0.0000, 0.0000, 0.0000, 0.0000, 0.0000, 0.0000, 0.9948, -0.0267, 0.0968, -0.0189, 0.0020, 0.0009, 0.0157, 0.0000, 0.0000, 0.0000, 0.0000
1, 1.9000, 190, 0.0631, 0.0135, -0.9951, 0.0824, -0.0271, -0.0203, 0.0000, 0.0000, 0.0000, 0.0000, 0.0000, 0.0000, -0.2843, -0.3210, 0.7147, -0.5526, -0.0113, 0.9588, 1.2230, 0.0000, 0.0000, 0.0000, 0.0000
3, 1.9100, 191, 0.0090, -0.0334, -1.0010, 0.0264, 0.0527, -0.0149, 0.0000, 0.0000, 0.0000, 0.0000, 0.0000, 0.0000, 0.9676, -0.0174, 0.0003, 0.2518, -0.0010, -0.0005, 0.0016, 0.0000, 0.0000, 0.0000, 0.0000
1, 1.9100, 191, 0.0644, 0.0131, -0.9949, -0.0766, 0.0568, -0.0202, 0.0000, 0.0000, 0.0000, 0.0000, 0.0000, 0.0000, -0.2843, -0.3210, 0.7147, -0.5526, -0.0127, 0.9592, 1.2226, 0.0000, 0.0000, 0.0000, 0.0000
2, 1.9200, 192, -0.1970, -0.0492, -0.9951, 0.0596, -0.1050, 0.0525, 0.0000, 0.0000, 0.0000, 0.0000, 0.0000, 0.0000, 0.9948, -0.0267, 0.0968, -0.0189, 0.0035, -0.0003, 0.0153, 0.0000, 0.0000, 0.0000, 0.0000
3, 1.9200, 192, 0.0078, -0.0333, -1.0004, -0.0979, -0.0679, 0.0023, 0.0000, 0.0000, 0.0000, 0.0000, 0.0000, 0.0000, 0.9676, -0.0174, 0.0003, 0.2518, 0.0004, -0.0006, 0.0010, 0.0000, 0.0000, 0.0000, 0.0000
1, 1.9200, 192, 0.0642, 0.0136, -0.9948, 0.0997, 0.0073, -0.0206, 0.0000, 0.0000, 0.0000, 0.0000, 0.0000, 0.0000, -0.2843, -0.3209, 0.7147, -0.5526, -0.0126, 0.9588, 1.2225, 0.0000, 0.0000, 0.0000, 0.0000
2, 1.9300, 193, -0.1964, -0.0484, -0.9948, -0.0454, 0.0175, 0.0700, 0.0000, 0.0000, 0.0000, 0.0000, 0.0000, 0.0000, 0.9948, -0.0267, 0.0968, -0.0189, 0.0028, -0.0011, 0.0149, 0.0000, 0.0000, 0.0000, 0.0000
3, 1.9300, 193, 0.0072, -0.0351, -1.0011, 0.0622, -0.0163, -0.0665, 0.0000, 0.0000, 0.0000, 0.0000, 0.0000, 0.0000, 0.9676, -0.0174, 0.0003, 0.2518, 0.0011, 0.0013, 0.0017, 0.0000, 0.0000, 0.0000, 0.0000
